Time,header.seq,header.stamp.secs,header.stamp.nsecs,header.frame_id,orientation.x,orientation.y,orientation.z,orientation.w,orientation_covariance_0,orientation_covariance_1,orientation_covariance_2,orientation_covariance_3,orientation_covariance_4,orientation_covariance_5,orientation_covariance_6,orientation_covariance_7,orientation_covariance_8,angular_velocity.x,angular_velocity.y,angular_velocity.z,angular_velocity_covariance_0,angular_velocity_covariance_1,angular_velocity_covariance_2,angular_velocity_covariance_3,angular_velocity_covariance_4,angular_velocity_covariance_5,angular_velocity_covariance_6,angular_velocity_covariance_7,angular_velocity_covariance_8,linear_acceleration.x,linear_acceleration.y,linear_acceleration.z,linear_acceleration_covariance_0,linear_acceleration_covariance_1,linear_acceleration_covariance_2,linear_acceleration_covariance_3,linear_acceleration_covariance_4,linear_acceleration_covariance_5,linear_acceleration_covariance_6,linear_acceleration_covariance_7,linear_acceleration_covariance_8
1779481145.6195138,48662,1779481145,609583166,imu_link,0.014206440187990665,-2.1410096451290883e-05,0.9869107007980347,0.16061416268348694,0.0024999999441206455,0.0,0.0,0.0,0.0024999999441206455,0.0,0.0,0.0,0.0024999999441206455,0.0,0.0,0.0,0.019999999552965164,0.0,0.0,0.0,0.019999999552965164,0.0,0.0,0.0,0.019999999552965164,0.25438392162323,0.04249707981944084,9.566631317138672,0.03999999910593033,0.0,0.0,0.0,0.03999999910593033,0.0,0.0,0.0,0.03999999910593033
1779481145.6244605,48663,1779481145,614583166,imu_link,0.014206440187990665,-2.1410096451290883e-05,0.9869107007980347,0.16061416268348694,0.0024999999441206455,0.0,0.0,0.0,0.0024999999441206455,0.0,0.0,0.0,0.0024999999441206455,0.0,0.0,0.0,0.019999999552965164,0.0,0.0,0.0,0.019999999552965164,0.0,0.0,0.0,0.019999999552965164,0.25438392162323,0.04249707981944084,9.566631317138672,0.03999999910593033,0.0,0.0,0.0,0.03999999910593033,0.0,0.0,0.0,0.03999999910593033
1779481145.6450715,48664,1779481145,652583166,imu_link,0.01754598133265972,-0.001893649809062481,0.9868608117103577,0.1605791598558426,0.0024999999441206455,0.0,0.0,0.0,0.0024999999441206455,0.0,0.0,0.0,0.0024999999441206455,0.0,0.0,0.0,0.019999999552965164,0.0,0.0,0.0,0.019999999552965164,0.0,0.0,0.0,0.019999999552965164,0.28730419278144836,0.03770867735147476,9.655815124511719,0.03999999910593033,0.0,0.0,0.0,0.03999999910593033,0.0,0.0,0.0,0.03999999910593033
1779481145.6508732,48665,1779481145,654583166,imu_link,0.016981007531285286,-0.001504229730926454,0.9868701696395874,0.16058652102947235,0.0024999999441206455,0.0,0.0,0.0,0.0024999999441206455,0.0,0.0,0.0,0.0024999999441206455,0.0,0.0,0.0,0.019999999552965164,0.0,0.0,0.0,0.019999999552965164,0.0,0.0,0.0,0.019999999552965164,0.30526071786880493,0.0347159244120121,9.640851974487305,0.03999999910593033,0.0,0.0,0.0,0.03999999910593033,0.0,0.0,0.0,0.03999999910593033
1779481145.6563144,48666,1779481145,659583166,imu_link,0.016981007531285286,-0.001504229730926454,0.9868701696395874,0.16058652102947235,0.0024999999441206455,0.0,0.0,0.0,0.0024999999441206455,0.0,0.0,0.0,0.0024999999441206455,0.0,0.0,0.0,0.019999999552965164,0.0,0.0,0.0,0.019999999552965164,0.0,0.0,0.0,0.019999999552965164,0.30526071786880493,0.0347159244120121,9.640851974487305,0.03999999910593033,0.0,0.0,0.0,0.03999999910593033,0.0,0.0,0.0,0.03999999910593033
1779481145.6619437,48667,1779481145,664583166,imu_link,0.01624610461294651,-0.0016259067924693227,0.9868825674057007,0.16058531403541565,0.0024999999441206455,0.0,0.0,0.0,0.0024999999441206455,0.0,0.0,0.0,0.0024999999441206455,0.0,0.0,0.0,0.019999999552965164,0.0,0.0,0.0,0.019999999552965164,0.0,0.0,0.0,0.019999999552965164,0.28730419278144836,0.010175356641411781,9.649829864501953,0.03999999910593033,0.0,0.0,0.0,0.03999999910593033,0.0,0.0,0.0,0.03999999910593033
1779481145.6680727,48668,1779481145,669583166,imu_link,0.015675660222768784,-0.0011593445669859648,0.9868911504745483,0.1605934500694275,0.0024999999441206455,0.0,0.0,0.0,0.0024999999441206455,0.0,0.0,0.0,0.0024999999441206455,0.0,0.0,0.0,0.019999999552965164,0.0,0.0,0.0,0.019999999552965164,0.0,0.0,0.0,0.019999999552965164,0.29209259152412415,0.03172317147254944,9.616311073303223,0.03999999910593033,0.0,0.0,0.0,0.03999999910593033,0.0,0.0,0.0,0.03999999910593033
1779481145.6738796,48669,1779481145,674583166,imu_link,0.015675660222768784,-0.0011593445669859648,0.9868911504745483,0.1605934500694275,0.0024999999441206455,0.0,0.0,0.0,0.0024999999441206455,0.0,0.0,0.0,0.0024999999441206455,0.0,0.0,0.0,0.019999999552965164,0.0,0.0,0.0,0.019999999552965164,0.0,0.0,0.0,0.019999999552965164,0.29209259152412415,0.03172317147254944,9.616311073303223,0.03999999910593033,0.0,0.0,0.0,0.03999999910593033,0.0,0.0,0.0,0.03999999910593033
1779481145.6789548,48670,1779481145,679583166,imu_link,0.015005293302237988,-0.0008466569124720991,0.9869009256362915,0.1605992168188095,0.0024999999441206455,0.0,0.0,0.0,0.0024999999441206455,0.0,0.0,0.0,0.0024999999441206455,0.0,0.0,0.0,0.019999999552965164,0.0,0.0,0.0,0.019999999552965164,0.0,0.0,0.0,0.019999999552965164,0.27892449498176575,0.032920271158218384,9.63306999206543,0.03999999910593033,0.0,0.0,0.0,0.03999999910593033,0.0,0.0,0.0,0.03999999910593033
1779481145.7349746,48671,1779481145,731583166,imu_link,0.010721716098487377,-0.00340088689699769,0.9869567155838013,0.1605657935142517,0.0024999999441206455,0.0,0.0,0.0,0.0024999999441206455,0.0,0.0,0.0,0.0024999999441206455,0.0,0.0,0.0,0.019999999552965164,0.0,0.0,0.0,0.019999999552965164,0.0,0.0,0.0,0.019999999552965164,0.272938996553421,0.017956512048840523,9.618704795837402,0.03999999910593033,0.0,0.0,0.0,0.03999999910593033,0.0,0.0,0.0,0.03999999910593033
1779481145.7373402,48672,1779481145,733583166,imu_link,0.011363007128238678,-0.003168978728353977,0.9869497418403625,0.16056938469409943,0.0024999999441206455,0.0,0.0,0.0,0.0024999999441206455,0.0,0.0,0.0,0.0024999999441206455,0.0,0.0,0.0,0.019999999552965164,0.0,0.0,0.0,0.019999999552965164,0.0,0.0,0.0,0.019999999552965164,0.2998737692832947,0.015562310814857483,9.66539192199707,0.03999999910593033,0.0,0.0,0.0,0.03999999910593033,0.0,0.0,0.0,0.03999999910593033
1779481145.737362,48673,1779481145,738583166,imu_link,0.011363007128238678,-0.003168978728353977,0.9869497418403625,0.16056938469409943,0.0024999999441206455,0.0,0.0,0.0,0.0024999999441206455,0.0,0.0,0.0,0.0024999999441206455,0.0,0.0,0.0,0.019999999552965164,0.0,0.0,0.0,0.019999999552965164,0.0,0.0,0.0,0.019999999552965164,0.2998737692832947,0.015562310814857483,9.66539192199707,0.03999999910593033,0.0,0.0,0.0,0.03999999910593033,0.0,0.0,0.0,0.03999999910593033
1779481145.7373755,48674,1779481145,743583166,imu_link,0.012075462378561497,-0.0029792720451951027,0.9869413375854492,0.16057249903678894,0.0024999999441206455,0.0,0.0,0.0,0.0024999999441206455,0.0,0.0,0.0,0.0024999999441206455,0.0,0.0,0.0,0.019999999552965164,0.0,0.0,0.0,0.019999999552965164,0.0,0.0,0.0,0.019999999552965164,0.3124433159828186,0.014365210197865963,9.57979965209961,0.03999999910593033,0.0,0.0,0.0,0.03999999910593033,0.0,0.0,0.0,0.03999999910593033
1779481145.7393832,48675,1779481145,748583166,imu_link,0.012410992756485939,-0.0023199100978672504,0.9869375824928284,0.16058096289634705,0.0024999999441206455,0.0,0.0,0.0,0.0024999999441206455,0.0,0.0,0.0,0.0024999999441206455,0.0,0.0,0.0,0.019999999552965164,0.0,0.0,0.0,0.019999999552965164,0.0,0.0,0.0,0.019999999552965164,0.2561795711517334,0.038307227194309235,9.588178634643555,0.03999999910593033,0.0,0.0,0.0,0.03999999910593033,0.0,0.0,0.0,0.03999999910593033
1779481145.7442656,48676,1779481145,753583166,imu_link,0.012410992756485939,-0.0023199100978672504,0.9869375824928284,0.16058096289634705,0.0024999999441206455,0.0,0.0,0.0,0.0024999999441206455,0.0,0.0,0.0,0.0024999999441206455,0.0,0.0,0.0,0.019999999552965164,0.0,0.0,0.0,0.019999999552965164,0.0,0.0,0.0,0.019999999552965164,0.2561795711517334,0.038307227194309235,9.588178634643555,0.03999999910593033,0.0,0.0,0.0,0.03999999910593033,0.0,0.0,0.0,0.03999999910593033
1779481145.7495325,48677,1779481145,758583166,imu_link,0.013132383115589619,-0.0021357452496886253,0.9869282245635986,0.16058345139026642,0.0024999999441206455,0.0,0.0,0.0,0.0024999999441206455,0.0,0.0,0.0,0.0024999999441206455,0.0,0.0,0.0,0.019999999552965164,0.0,0.0,0.0,0.019999999552965164,0.0,0.0,0.0,0.019999999552965164,0.2950853407382965,0.016759412363171577,9.643844604492188,0.03999999910593033,0.0,0.0,0.0,0.03999999910593033,0.0,0.0,0.0,0.03999999910593033
1779481145.7717085,48678,1779481145,767583166,imu_link,0.014274169690907001,-0.002369331195950508,0.9869124293327332,0.16058024764060974,0.0024999999441206455,0.0,0.0,0.0,0.0024999999441206455,0.0,0.0,0.0,0.0024999999441206455,0.0,0.0,0.0,0.019999999552965164,0.0,0.0,0.0,0.019999999552965164,0.0,0.0,0.0,0.019999999552965164,0.272938996553421,-0.0005985504249110818,9.680953979492188,0.03999999910593033,0.0,0.0,0.0,0.03999999910593033,0.0,0.0,0.0,0.03999999910593033
1779481145.7774303,48679,1779481145,772583166,imu_link,0.014274169690907001,-0.002369331195950508,0.9869124293327332,0.16058024764060974,0.0024999999441206455,0.0,0.0,0.0,0.0024999999441206455,0.0,0.0,0.0,0.0024999999441206455,0.0,0.0,0.0,0.019999999552965164,0.0,0.0,0.0,0.019999999552965164,0.0,0.0,0.0,0.019999999552965164,0.272938996553421,-0.0005985504249110818,9.680953979492188,0.03999999910593033,0.0,0.0,0.0,0.03999999910593033,0.0,0.0,0.0,0.03999999910593033
1779481145.7996805,48680,1779481145,813583166,imu_link,0.011662384495139122,0.0008290734840556979,0.986941933631897,0.16062504053115845,0.0024999999441206455,0.0,0.0,0.0,0.0024999999441206455,0.0,0.0,0.0,0.0024999999441206455,0.0,0.0,0.0,0.019999999552965164,0.0,0.0,0.0,0.019999999552965164,0.0,0.0,0.0,0.019999999552965164,0.2454056739807129,0.0293289702385664,9.657011985778809,0.03999999910593033,0.0,0.0,0.0,0.03999999910593033,0.0,0.0,0.0,0.03999999910593033
1779481145.8049235,48681,1779481145,815583166,imu_link,0.012165811844170094,0.0003732079057954252,0.9869371652603149,0.16061845421791077,0.0024999999441206455,0.0,0.0,0.0,0.0024999999441206455,0.0,0.0,0.0,0.0024999999441206455,0.0,0.0,0.0,0.019999999552965164,0.0,0.0,0.0,0.019999999552965164,0.0,0.0,0.0,0.019999999552965164,0.28790274262428284,0.0065840547904372215,9.59057331085205,0.03999999910593033,0.0,0.0,0.0,0.03999999910593033,0.0,0.0,0.0,0.03999999910593033
1779481145.8103702,48682,1779481145,820583166,imu_link,0.012165811844170094,0.0003732079057954252,0.9869371652603149,0.16061845421791077,0.0024999999441206455,0.0,0.0,0.0,0.0024999999441206455,0.0,0.0,0.0,0.0024999999441206455,0.0,0.0,0.0,0.019999999552965164,0.0,0.0,0.0,0.019999999552965164,0.0,0.0,0.0,0.019999999552965164,0.28790274262428284,0.0065840547904372215,9.59057331085205,0.03999999910593033,0.0,0.0,0.0,0.03999999910593033,0.0,0.0,0.0,0.03999999910593033
1779481145.8158944,48683,1779481145,825583166,imu_link,0.012641454115509987,-0.00019453003187663853,0.9869325160980225,0.16061052680015564,0.0024999999441206455,0.0,0.0,0.0,0.0024999999441206455,0.0,0.0,0.0,0.0024999999441206455,0.0,0.0,0.0,0.019999999552965164,0.0,0.0,0.0,0.019999999552965164,0.0,0.0,0.0,0.019999999552965164,0.2651578485965729,0.015562310814857483,9.670180320739746,0.03999999910593033,0.0,0.0,0.0,0.03999999910593033,0.0,0.0,0.0,0.03999999910593033
1779481145.8216677,48684,1779481145,830583166,imu_link,0.013244068250060081,-0.0006242990493774414,0.986925482749939,0.16060400009155273,0.0024999999441206455,0.0,0.0,0.0,0.0024999999441206455,0.0,0.0,0.0,0.0024999999441206455,0.0,0.0,0.0,0.019999999552965164,0.0,0.0,0.0,0.019999999552965164,0.0,0.0,0.0,0.019999999552965164,0.28790274262428284,0.012569558806717396,9.64803409576416,0.03999999910593033,0.0,0.0,0.0,0.03999999910593033,0.0,0.0,0.0,0.03999999910593033
1779481145.8282738,48685,1779481145,835583166,imu_link,0.013244068250060081,-0.0006242990493774414,0.986925482749939,0.16060400009155273,0.0024999999441206455,0.0,0.0,0.0,0.0024999999441206455,0.0,0.0,0.0,0.0024999999441206455,0.0,0.0,0.0,0.019999999552965164,0.0,0.0,0.0,0.019999999552965164,0.0,0.0,0.0,0.019999999552965164,0.28790274262428284,0.012569558806717396,9.64803409576416,0.03999999910593033,0.0,0.0,0.0,0.03999999910593033,0.0,0.0,0.0,0.03999999910593033
1779481145.8338025,48686,1779481145,840583166,imu_link,0.013986961916089058,-0.0006848213379271328,0.9869155287742615,0.16060204803943634,0.0024999999441206455,0.0,0.0,0.0,0.0024999999441206455,0.0,0.0,0.0,0.0024999999441206455,0.0,0.0,0.0,0.019999999552965164,0.0,0.0,0.0,0.019999999552965164,0.0,0.0,0.0,0.019999999552965164,0.29388824105262756,0.03232172131538391,9.622296333312988,0.03999999910593033,0.0,0.0,0.0,0.03999999910593033,0.0,0.0,0.0,0.03999999910593033
1779481145.8559601,48687,1779481145,849583166,imu_link,0.015053102746605873,-0.0011513393837958574,0.986900806427002,0.16059377789497375,0.0024999999441206455,0.0,0.0,0.0,0.0024999999441206455,0.0,0.0,0.0,0.0024999999441206455,0.0,0.0,0.0,0.019999999552965164,0.0,0.0,0.0,0.019999999552965164,0.0,0.0,0.0,0.019999999552965164,0.28131869435310364,0.02693476900458336,9.636661529541016,0.03999999910593033,0.0,0.0,0.0,0.03999999910593033,0.0,0.0,0.0,0.03999999910593033
1779481145.8767595,48688,1779481145,889583166,imu_link,0.014546802267432213,-0.004644325468689203,0.9869067668914795,0.1605408638715744,0.0024999999441206455,0.0,0.0,0.0,0.0024999999441206455,0.0,0.0,0.0,0.0024999999441206455,0.0,0.0,0.0,0.019999999552965164,0.0,0.0,0.0,0.019999999552965164,0.0,0.0,0.0,0.019999999552965164,0.2914940416812897,0.0,9.671377182006836,0.03999999910593033,0.0,0.0,0.0,0.03999999910593033,0.0,0.0,0.0,0.03999999910593033
1779481145.882575,48689,1779481145,891583166,imu_link,0.014575853943824768,-0.003970447462052107,0.9869075417518616,0.160551056265831,0.0024999999441206455,0.0,0.0,0.0,0.0024999999441206455,0.0,0.0,0.0,0.0024999999441206455,0.0,0.0,0.0,0.019999999552965164,0.0,0.0,0.0,0.019999999552965164,0.0,0.0,0.0,0.019999999552965164,0.28311434388160706,0.026336219161748886,9.643245697021484,0.03999999910593033,0.0,0.0,0.0,0.03999999910593033,0.0,0.0,0.0,0.03999999910593033
1779481145.8881562,48690,1779481145,896583166,imu_link,0.014575853943824768,-0.003970447462052107,0.9869075417518616,0.160551056265831,0.0024999999441206455,0.0,0.0,0.0,0.0024999999441206455,0.0,0.0,0.0,0.0024999999441206455,0.0,0.0,0.0,0.019999999552965164,0.0,0.0,0.0,0.019999999552965164,0.0,0.0,0.0,0.019999999552965164,0.28311434388160706,0.026336219161748886,9.643245697021484,0.03999999910593033,0.0,0.0,0.0,0.03999999910593033,0.0,0.0,0.0,0.03999999910593033
1779481145.8937116,48691,1779481145,901583166,imu_link,0.014465326443314552,-0.003238477511331439,0.9869101643562317,0.16056184470653534,0.0024999999441206455,0.0,0.0,0.0,0.0024999999441206455,0.0,0.0,0.0,0.0024999999441206455,0.0,0.0,0.0,0.019999999552965164,0.0,0.0,0.0,0.019999999552965164,0.0,0.0,0.0,0.019999999552965164,0.27712884545326233,0.0065840547904372215,9.615114212036133,0.03999999910593033,0.0,0.0,0.0,0.03999999910593033,0.0,0.0,0.0,0.03999999910593033
1779481145.8993976,48692,1779481145,906583166,imu_link,0.01480796281248331,-0.002581575885415077,0.9869052767753601,0.16057179868221283,0.0024999999441206455,0.0,0.0,0.0,0.0024999999441206455,0.0,0.0,0.0,0.0024999999441206455,0.0,0.0,0.0,0.019999999552965164,0.0,0.0,0.0,0.019999999552965164,0.0,0.0,0.0,0.019999999552965164,0.30226796865463257,0.032920271158218384,9.653421401977539,0.03999999910593033,0.0,0.0,0.0,0.03999999910593033,0.0,0.0,0.0,0.03999999910593033
1779481145.9052665,48693,1779481145,911583166,imu_link,0.01480796281248331,-0.002581575885415077,0.9869052767753601,0.16057179868221283,0.0024999999441206455,0.0,0.0,0.0,0.0024999999441206455,0.0,0.0,0.0,0.0024999999441206455,0.0,0.0,0.0,0.019999999552965164,0.0,0.0,0.0,0.019999999552965164,0.0,0.0,0.0,0.019999999552965164,0.30226796865463257,0.032920271158218384,9.653421401977539,0.03999999910593033,0.0,0.0,0.0,0.03999999910593033,0.0,0.0,0.0,0.03999999910593033
1779481145.9116218,48694,1779481145,916583166,imu_link,0.014651372097432613,-0.001852734130807221,0.9869075417518616,0.16058270633220673,0.0024999999441206455,0.0,0.0,0.0,0.0024999999441206455,0.0,0.0,0.0,0.0024999999441206455,0.0,0.0,0.0,0.019999999552965164,0.0,0.0,0.0,0.019999999552965164,0.0,0.0,0.0,0.019999999552965164,0.2795230448246002,0.023343466222286224,9.642048835754395,0.03999999910593033,0.0,0.0,0.0,0.03999999910593033,0.0,0.0,0.0,0.03999999910593033
1779481145.933158,48695,1779481145,925583166,imu_link,0.01397961936891079,-0.0008960462873801589,0.9869162440299988,0.1605970710515976,0.0024999999441206455,0.0,0.0,0.0,0.0024999999441206455,0.0,0.0,0.0,0.0024999999441206455,0.0,0.0,0.0,0.019999999552965164,0.0,0.0,0.0,0.019999999552965164,0.0,0.0,0.0,0.019999999552965164,0.2693476974964142,0.02513911761343479,9.619902610778809,0.03999999910593033,0.0,0.0,0.0,0.03999999910593033,0.0,0.0,0.0,0.03999999910593033
1779481145.9385874,48696,1779481145,930583166,imu_link,0.01397961936891079,-0.0008960462873801589,0.9869162440299988,0.1605970710515976,0.0024999999441206455,0.0,0.0,0.0,0.0024999999441206455,0.0,0.0,0.0,0.0024999999441206455,0.0,0.0,0.0,0.019999999552965164,0.0,0.0,0.0,0.019999999552965164,0.0,0.0,0.0,0.019999999552965164,0.2693476974964142,0.02513911761343479,9.619902610778809,0.03999999910593033,0.0,0.0,0.0,0.03999999910593033,0.0,0.0,0.0,0.03999999910593033
1779481145.9599326,48697,1779481145,969583166,imu_link,0.017503339797258377,-0.0026264232583343983,0.9868618845939636,0.16056691110134125,0.0024999999441206455,0.0,0.0,0.0,0.0024999999441206455,0.0,0.0,0.0,0.0024999999441206455,0.0,0.0,0.0,0.019999999552965164,0.0,0.0,0.0,0.019999999552965164,0.0,0.0,0.0,0.019999999552965164,0.33099839091300964,0.0077811554074287415,9.676764488220215,0.03999999910593033,0.0,0.0,0.0,0.03999999910593033,0.0,0.0,0.0,0.03999999910593033
1779481145.9658802,48698,1779481145,971583166,imu_link,0.016984032467007637,-0.002192713087424636,0.9868708252906799,0.16057465970516205,0.0024999999441206455,0.0,0.0,0.0,0.0024999999441206455,0.0,0.0,0.0,0.0024999999441206455,0.0,0.0,0.0,0.019999999552965164,0.0,0.0,0.0,0.019999999552965164,0.0,0.0,0.0,0.019999999552965164,0.28969839215278625,0.03411737456917763,9.608530044555664,0.03999999910593033,0.0,0.0,0.0,0.03999999910593033,0.0,0.0,0.0,0.03999999910593033
1779481145.97127,48699,1779481145,976583166,imu_link,0.016984032467007637,-0.002192713087424636,0.9868708252906799,0.16057465970516205,0.0024999999441206455,0.0,0.0,0.0,0.0024999999441206455,0.0,0.0,0.0,0.0024999999441206455,0.0,0.0,0.0,0.019999999552965164,0.0,0.0,0.0,0.019999999552965164,0.0,0.0,0.0,0.019999999552965164,0.28969839215278625,0.03411737456917763,9.608530044555664,0.03999999910593033,0.0,0.0,0.0,0.03999999910593033,0.0,0.0,0.0,0.03999999910593033
1779481145.9768872,48700,1779481145,981583166,imu_link,0.0165708027780056,-0.0015786989824846387,0.9868771433830261,0.16058534383773804,0.0024999999441206455,0.0,0.0,0.0,0.0024999999441206455,0.0,0.0,0.0,0.0024999999441206455,0.0,0.0,0.0,0.019999999552965164,0.0,0.0,0.0,0.019999999552965164,0.0,0.0,0.0,0.019999999552965164,0.30885201692581177,0.033518824726343155,9.639654159545898,0.03999999910593033,0.0,0.0,0.0,0.03999999910593033,0.0,0.0,0.0,0.03999999910593033
1779481145.9824526,48701,1779481145,986583166,imu_link,0.01587304100394249,-0.0013315732358023524,0.9868882894515991,0.16059020161628723,0.0024999999441206455,0.0,0.0,0.0,0.0024999999441206455,0.0,0.0,0.0,0.0024999999441206455,0.0,0.0,0.0,0.019999999552965164,0.0,0.0,0.0,0.019999999552965164,0.0,0.0,0.0,0.019999999552965164,0.28730419278144836,0.02693476900458336,9.600749015808105,0.03999999910593033,0.0,0.0,0.0,0.03999999910593033,0.0,0.0,0.0,0.03999999910593033
1779481145.988678,48702,1779481145,991583166,imu_link,0.01587304100394249,-0.0013315732358023524,0.9868882894515991,0.16059020161628723,0.0024999999441206455,0.0,0.0,0.0,0.0024999999441206455,0.0,0.0,0.0,0.0024999999441206455,0.0,0.0,0.0,0.019999999552965164,0.0,0.0,0.0,0.019999999552965164,0.0,0.0,0.0,0.019999999552965164,0.28730419278144836,0.02693476900458336,9.600749015808105,0.03999999910593033,0.0,0.0,0.0,0.03999999910593033,0.0,0.0,0.0,0.03999999910593033
1779481145.9946187,48703,1779481145,996583166,imu_link,0.015486309304833412,-0.0006947125657461584,0.986893355846405,0.16060075163841248,0.0024999999441206455,0.0,0.0,0.0,0.0024999999441206455,0.0,0.0,0.0,0.0024999999441206455,0.0,0.0,0.0,0.019999999552965164,0.0,0.0,0.0,0.019999999552965164,0.0,0.0,0.0,0.019999999552965164,0.29807811975479126,0.033518824726343155,9.642048835754395,0.03999999910593033,0.0,0.0,0.0,0.03999999910593033,0.0,0.0,0.0,0.03999999910593033
1779481146.0162957,48704,1779481146,5583166,imu_link,0.01652439869940281,-0.0012325459392741323,0.9868776798248291,0.16059048473834991,0.0024999999441206455,0.0,0.0,0.0,0.0024999999441206455,0.0,0.0,0.0,0.0024999999441206455,0.0,0.0,0.0,0.019999999552965164,0.0,0.0,0.0,0.019999999552965164,0.0,0.0,0.0,0.019999999552965164,0.3262099623680115,0.02513911761343479,9.637858390808105,0.03999999910593033,0.0,0.0,0.0,0.03999999910593033,0.0,0.0,0.0,0.03999999910593033
1779481146.0376287,48705,1779481146,46583166,imu_link,0.012937108054757118,-0.0007135470514185727,0.9869297742843628,0.16060318052768707,0.0024999999441206455,0.0,0.0,0.0,0.0024999999441206455,0.0,0.0,0.0,0.0024999999441206455,0.0,0.0,0.0,0.019999999552965164,0.0,0.0,0.0,0.019999999552965164,0.0,0.0,0.0,0.019999999552965164,0.27653029561042786,0.02693476900458336,9.617507934570312,0.03999999910593033,0.0,0.0,0.0,0.03999999910593033,0.0,0.0,0.0,0.03999999910593033
1779481146.0431774,48706,1779481146,48583166,imu_link,0.013568243943154812,-0.0009574436699040234,0.9869217276573181,0.16059914231300354,0.0024999999441206455,0.0,0.0,0.0,0.0024999999441206455,0.0,0.0,0.0,0.0024999999441206455,0.0,0.0,0.0,0.019999999552965164,0.0,0.0,0.0,0.019999999552965164,0.0,0.0,0.0,0.019999999552965164,0.2885012924671173,0.017956512048840523,9.626486778259277,0.03999999910593033,0.0,0.0,0.0,0.03999999910593033,0.0,0.0,0.0,0.03999999910593033
1779481146.0490358,48707,1779481146,53583166,imu_link,0.013568243943154812,-0.0009574436699040234,0.9869217276573181,0.16059914231300354,0.0024999999441206455,0.0,0.0,0.0,0.0024999999441206455,0.0,0.0,0.0,0.0024999999441206455,0.0,0.0,0.0,0.019999999552965164,0.0,0.0,0.0,0.019999999552965164,0.0,0.0,0.0,0.019999999552965164,0.2885012924671173,0.017956512048840523,9.626486778259277,0.03999999910593033,0.0,0.0,0.0,0.03999999910593033,0.0,0.0,0.0,0.03999999910593033
1779481146.054916,48708,1779481146,58583166,imu_link,0.014304142445325851,-0.0008782565710134804,0.9869113564491272,0.16059927642345428,0.0024999999441206455,0.0,0.0,0.0,0.0024999999441206455,0.0,0.0,0.0,0.0024999999441206455,0.0,0.0,0.0,0.019999999552965164,0.0,0.0,0.0,0.019999999552965164,0.0,0.0,0.0,0.019999999552965164,0.28730419278144836,0.031124621629714966,9.609726905822754,0.03999999910593033,0.0,0.0,0.0,0.03999999910593033,0.0,0.0,0.0,0.03999999910593033
1779481146.060605,48709,1779481146,63583166,imu_link,0.014536974020302296,-0.00017500139074400067,0.9869066476821899,0.1606089174747467,0.0024999999441206455,0.0,0.0,0.0,0.0024999999441206455,0.0,0.0,0.0,0.0024999999441206455,0.0,0.0,0.0,0.019999999552965164,0.0,0.0,0.0,0.019999999552965164,0.0,0.0,0.0,0.019999999552965164,0.2777273952960968,0.043095629662275314,9.648633003234863,0.03999999910593033,0.0,0.0,0.0,0.03999999910593033,0.0,0.0,0.0,0.03999999910593033
1779481146.066576,48710,1779481146,68583166,imu_link,0.014536974020302296,-0.00017500139074400067,0.9869066476821899,0.1606089174747467,0.0024999999441206455,0.0,0.0,0.0,0.0024999999441206455,0.0,0.0,0.0,0.0024999999441206455,0.0,0.0,0.0,0.019999999552965164,0.0,0.0,0.0,0.019999999552965164,0.0,0.0,0.0,0.019999999552965164,0.2777273952960968,0.043095629662275314,9.648633003234863,0.03999999910593033,0.0,0.0,0.0,0.03999999910593033,0.0,0.0,0.0,0.03999999910593033
1779481146.0726702,48711,1779481146,73583166,imu_link,0.015266203321516514,-2.3496380890719593e-05,0.9868956208229065,0.16060946881771088,0.0024999999441206455,0.0,0.0,0.0,0.0024999999441206455,0.0,0.0,0.0,0.0024999999441206455,0.0,0.0,0.0,0.019999999552965164,0.0,0.0,0.0,0.019999999552965164,0.0,0.0,0.0,0.019999999552965164,0.2968810200691223,0.04908113554120064,9.661202430725098,0.03999999910593033,0.0,0.0,0.0,0.03999999910593033,0.0,0.0,0.0,0.03999999910593033
1779481146.094477,48712,1779481146,82583166,imu_link,0.015484770759940147,-0.0011733411811292171,0.986894428730011,0.1605914980173111,0.0024999999441206455,0.0,0.0,0.0,0.0024999999441206455,0.0,0.0,0.0,0.0024999999441206455,0.0,0.0,0.0,0.019999999552965164,0.0,0.0,0.0,0.019999999552965164,0.0,0.0,0.0,0.019999999552965164,0.3058592677116394,0.008978256024420261,9.683348655700684,0.03999999910593033,0.0,0.0,0.0,0.03999999910593033,0.0,0.0,0.0,0.03999999910593033
1779481146.11656,48713,1779481146,130583166,imu_link,0.012621656060218811,-0.004414594732224941,0.9869338274002075,0.16054365038871765,0.0024999999441206455,0.0,0.0,0.0,0.0024999999441206455,0.0,0.0,0.0,0.0024999999441206455,0.0,0.0,0.0,0.019999999552965164,0.0,0.0,0.0,0.019999999552965164,0.0,0.0,0.0,0.019999999552965164,0.29628247022628784,0.021547814831137657,9.655217170715332,0.03999999910593033,0.0,0.0,0.0,0.03999999910593033,0.0,0.0,0.0,0.03999999910593033
1779481146.1214566,48714,1779481146,132583166,imu_link,0.013012868352234364,-0.0038605837617069483,0.9869296550750732,0.16055180132389069,0.0024999999441206455,0.0,0.0,0.0,0.0024999999441206455,0.0,0.0,0.0,0.0024999999441206455,0.0,0.0,0.0,0.019999999552965164,0.0,0.0,0.0,0.019999999552965164,0.0,0.0,0.0,0.019999999552965164,0.2932896912097931,0.03651157394051552,9.627683639526367,0.03999999910593033,0.0,0.0,0.0,0.03999999910593033,0.0,0.0,0.0,0.03999999910593033
1779481146.1268983,48715,1779481146,137583166,imu_link,0.013012868352234364,-0.0038605837617069483,0.9869296550750732,0.16055180132389069,0.0024999999441206455,0.0,0.0,0.0,0.0024999999441206455,0.0,0.0,0.0,0.0024999999441206455,0.0,0.0,0.0,0.019999999552965164,0.0,0.0,0.0,0.019999999552965164,0.0,0.0,0.0,0.019999999552965164,0.2932896912097931,0.03651157394051552,9.627683639526367,0.03999999910593033,0.0,0.0,0.0,0.03999999910593033,0.0,0.0,0.0,0.03999999910593033
1779481146.1325042,48716,1779481146,142583166,imu_link,0.013360184617340565,-0.0032054365146905184,0.9869258999824524,0.1605611890554428,0.0024999999441206455,0.0,0.0,0.0,0.0024999999441206455,0.0,0.0,0.0,0.0024999999441206455,0.0,0.0,0.0,0.019999999552965164,0.0,0.0,0.0,0.019999999552965164,0.0,0.0,0.0,0.019999999552965164,0.2777273952960968,0.01975216343998909,9.64564037322998,0.03999999910593033,0.0,0.0,0.0,0.03999999910593033,0.0,0.0,0.0,0.03999999910593033
1779481146.1378784,48717,1779481146,147583166,imu_link,0.013865229673683643,-0.0026635469403117895,0.9869192838668823,0.16056910157203674,0.0024999999441206455,0.0,0.0,0.0,0.0024999999441206455,0.0,0.0,0.0,0.0024999999441206455,0.0,0.0,0.0,0.019999999552965164,0.0,0.0,0.0,0.019999999552965164,0.0,0.0,0.0,0.019999999552965164,0.28311434388160706,0.008978256024420261,9.631275177001953,0.03999999910593033,0.0,0.0,0.0,0.03999999910593033,0.0,0.0,0.0,0.03999999910593033
1779481146.1431098,48718,1779481146,152583166,imu_link,0.013865229673683643,-0.0026635469403117895,0.9869192838668823,0.16056910157203674,0.0024999999441206455,0.0,0.0,0.0,0.0024999999441206455,0.0,0.0,0.0,0.0024999999441206455,0.0,0.0,0.0,0.019999999552965164,0.0,0.0,0.0,0.019999999552965164,0.0,0.0,0.0,0.019999999552965164,0.28311434388160706,0.008978256024420261,9.631275177001953,0.03999999910593033,0.0,0.0,0.0,0.03999999910593033,0.0,0.0,0.0,0.03999999910593033
1779481146.1493392,48719,1779481146,157583166,imu_link,0.014517872594296932,-0.0023054401390254498,0.9869099855422974,0.16057437658309937,0.0024999999441206455,0.0,0.0,0.0,0.0024999999441206455,0.0,0.0,0.0,0.0024999999441206455,0.0,0.0,0.0,0.019999999552965164,0.0,0.0,0.0,0.019999999552965164,0.0,0.0,0.0,0.019999999552965164,0.3076549172401428,0.019153613597154617,9.674370765686035,0.03999999910593033,0.0,0.0,0.0,0.03999999910593033,0.0,0.0,0.0,0.03999999910593033
1779481146.171603,48720,1779481146,166583166,imu_link,0.015674546360969543,-0.002478933660313487,0.9868922829627991,0.1605716496706009,0.0024999999441206455,0.0,0.0,0.0,0.0024999999441206455,0.0,0.0,0.0,0.0024999999441206455,0.0,0.0,0.0,0.019999999552965164,0.0,0.0,0.0,0.019999999552965164,0.0,0.0,0.0,0.019999999552965164,0.2932896912097931,0.0011971008498221636,9.652822494506836,0.03999999910593033,0.0,0.0,0.0,0.03999999910593033,0.0,0.0,0.0,0.03999999910593033
1779481146.1771808,48721,1779481146,171583166,imu_link,0.015674546360969543,-0.002478933660313487,0.9868922829627991,0.1605716496706009,0.0024999999441206455,0.0,0.0,0.0,0.0024999999441206455,0.0,0.0,0.0,0.0024999999441206455,0.0,0.0,0.0,0.019999999552965164,0.0,0.0,0.0,0.019999999552965164,0.0,0.0,0.0,0.019999999552965164,0.2932896912097931,0.0011971008498221636,9.652822494506836,0.03999999910593033,0.0,0.0,0.0,0.03999999910593033,0.0,0.0,0.0,0.03999999910593033
1779481146.198913,48722,1779481146,210583166,imu_link,0.013523870147764683,0.0008040074026212096,0.9869185090065002,0.16062265634536743,0.0024999999441206455,0.0,0.0,0.0,0.0024999999441206455,0.0,0.0,0.0,0.0024999999441206455,0.0,0.0,0.0,0.019999999552965164,0.0,0.0,0.0,0.019999999552965164,0.0,0.0,0.0,0.019999999552965164,0.272938996553421,0.03711012750864029,9.627683639526367,0.03999999910593033,0.0,0.0,0.0,0.03999999910593033,0.0,0.0,0.0,0.03999999910593033
1779481146.204629,48723,1779481146,212583166,imu_link,0.014068332500755787,0.00040034163976088166,0.9869123101234436,0.16061566770076752,0.0024999999441206455,0.0,0.0,0.0,0.0024999999441206455,0.0,0.0,0.0,0.0024999999441206455,0.0,0.0,0.0,0.019999999552965164,0.0,0.0,0.0,0.019999999552965164,0.0,0.0,0.0,0.019999999552965164,0.2867056429386139,0.040701426565647125,9.634865760803223,0.03999999910593033,0.0,0.0,0.0,0.03999999910593033,0.0,0.0,0.0,0.03999999910593033
1779481146.2102883,48724,1779481146,217583166,imu_link,0.014068332500755787,0.00040034163976088166,0.9869123101234436,0.16061566770076752,0.0024999999441206455,0.0,0.0,0.0,0.0024999999441206455,0.0,0.0,0.0,0.0024999999441206455,0.0,0.0,0.0,0.019999999552965164,0.0,0.0,0.0,0.019999999552965164,0.0,0.0,0.0,0.019999999552965164,0.2867056429386139,0.040701426565647125,9.634865760803223,0.03999999910593033,0.0,0.0,0.0,0.03999999910593033,0.0,0.0,0.0,0.03999999910593033
1779481146.215735,48725,1779481146,222583166,imu_link,0.014000498689711094,-0.00033656629966571927,0.9869149923324585,0.16060562431812286,0.0024999999441206455,0.0,0.0,0.0,0.0024999999441206455,0.0,0.0,0.0,0.0024999999441206455,0.0,0.0,0.0,0.019999999552965164,0.0,0.0,0.0,0.019999999552965164,0.0,0.0,0.0,0.019999999552965164,0.2693476974964142,0.0065840547904372215,9.628880500793457,0.03999999910593033,0.0,0.0,0.0,0.03999999910593033,0.0,0.0,0.0,0.03999999910593033
1779481146.221091,48726,1779481146,227583166,imu_link,0.014469768851995468,-0.0009096346329897642,0.9869092702865601,0.16059672832489014,0.0024999999441206455,0.0,0.0,0.0,0.0024999999441206455,0.0,0.0,0.0,0.0024999999441206455,0.0,0.0,0.0,0.019999999552965164,0.0,0.0,0.0,0.019999999552965164,0.0,0.0,0.0,0.019999999552965164,0.2890998423099518,0.018555063754320145,9.661800384521484,0.03999999910593033,0.0,0.0,0.0,0.03999999910593033,0.0,0.0,0.0,0.03999999910593033
1779481146.2271595,48727,1779481146,232583166,imu_link,0.014469768851995468,-0.0009096346329897642,0.9869092702865601,0.16059672832489014,0.0024999999441206455,0.0,0.0,0.0,0.0024999999441206455,0.0,0.0,0.0,0.0024999999441206455,0.0,0.0,0.0,0.019999999552965164,0.0,0.0,0.0,0.019999999552965164,0.0,0.0,0.0,0.019999999552965164,0.2890998423099518,0.018555063754320145,9.661800384521484,0.03999999910593033,0.0,0.0,0.0,0.03999999910593033,0.0,0.0,0.0,0.03999999910593033
1779481146.233261,48728,1779481146,237583166,imu_link,0.014734136871993542,-0.0016063188668340445,0.986906111240387,0.16058623790740967,0.0024999999441206455,0.0,0.0,0.0,0.0024999999441206455,0.0,0.0,0.0,0.0024999999441206455,0.0,0.0,0.0,0.019999999552965164,0.0,0.0,0.0,0.019999999552965164,0.0,0.0,0.0,0.019999999552965164,0.28371289372444153,0.01735796220600605,9.626486778259277,0.03999999910593033,0.0,0.0,0.0,0.03999999910593033,0.0,0.0,0.0,0.03999999910593033
1779481146.2549415,48729,1779481146,246583166,imu_link,0.014392993412911892,-0.00048641933244653046,0.9869096279144287,0.16060297191143036,0.0024999999441206455,0.0,0.0,0.0,0.0024999999441206455,0.0,0.0,0.0,0.0024999999441206455,0.0,0.0,0.0,0.019999999552965164,0.0,0.0,0.0,0.019999999552965164,0.0,0.0,0.0,0.019999999552965164,0.2711433470249176,0.043095629662275314,9.622895240783691,0.03999999910593033,0.0,0.0,0.0,0.03999999910593033,0.0,0.0,0.0,0.03999999910593033
1779481146.276458,48730,1779481146,288583166,imu_link,0.0163701381534338,-0.003641068236902356,0.986880362033844,0.16055317223072052,0.0024999999441206455,0.0,0.0,0.0,0.0024999999441206455,0.0,0.0,0.0,0.0024999999441206455,0.0,0.0,0.0,0.019999999552965164,0.0,0.0,0.0,0.019999999552965164,0.0,0.0,0.0,0.019999999552965164,0.29448679089546204,0.014963760040700436,9.674370765686035,0.03999999910593033,0.0,0.0,0.0,0.03999999910593033,0.0,0.0,0.0,0.03999999910593033
1779481146.2826436,48731,1779481146,290583166,imu_link,0.016008442267775536,-0.003066390287131071,0.986886739730835,0.1605624109506607,0.0024999999441206455,0.0,0.0,0.0,0.0024999999441206455,0.0,0.0,0.0,0.0024999999441206455,0.0,0.0,0.0,0.019999999552965164,0.0,0.0,0.0,0.019999999552965164,0.0,0.0,0.0,0.019999999552965164,0.2819172441959381,0.0293289702385664,9.68155288696289,0.03999999910593033,0.0,0.0,0.0,0.03999999910593033,0.0,0.0,0.0,0.03999999910593033
1779481146.2881527,48732,1779481146,295583166,imu_link,0.016008442267775536,-0.003066390287131071,0.986886739730835,0.1605624109506607,0.0024999999441206455,0.0,0.0,0.0,0.0024999999441206455,0.0,0.0,0.0,0.0024999999441206455,0.0,0.0,0.0,0.019999999552965164,0.0,0.0,0.0,0.019999999552965164,0.0,0.0,0.0,0.019999999552965164,0.2819172441959381,0.0293289702385664,9.68155288696289,0.03999999910593033,0.0,0.0,0.0,0.03999999910593033,0.0,0.0,0.0,0.03999999910593033
1779481146.2935832,48733,1779481146,300583166,imu_link,0.01567012071609497,-0.002408409956842661,0.9868922233581543,0.16057293117046356,0.0024999999441206455,0.0,0.0,0.0,0.0024999999441206455,0.0,0.0,0.0,0.0024999999441206455,0.0,0.0,0.0,0.019999999552965164,0.0,0.0,0.0,0.019999999552965164,0.0,0.0,0.0,0.019999999552965164,0.295683890581131,0.016759412363171577,9.649829864501953,0.03999999910593033,0.0,0.0,0.0,0.03999999910593033,0.0,0.0,0.0,0.03999999910593033
1779481146.2994123,48734,1779481146,305583166,imu_link,0.014936672523617744,-0.002306790789589286,0.9869036078453064,0.16057460010051727,0.0024999999441206455,0.0,0.0,0.0,0.0024999999441206455,0.0,0.0,0.0,0.0024999999441206455,0.0,0.0,0.0,0.019999999552965164,0.0,0.0,0.0,0.019999999552965164,0.0,0.0,0.0,0.019999999552965164,0.29388824105262756,0.002394201699644327,9.668384552001953,0.03999999910593033,0.0,0.0,0.0,0.03999999910593033,0.0,0.0,0.0,0.03999999910593033
1779481146.3059525,48735,1779481146,310583166,imu_link,0.014936672523617744,-0.002306790789589286,0.9869036078453064,0.16057460010051727,0.0024999999441206455,0.0,0.0,0.0,0.0024999999441206455,0.0,0.0,0.0,0.0024999999441206455,0.0,0.0,0.0,0.019999999552965164,0.0,0.0,0.0,0.019999999552965164,0.0,0.0,0.0,0.019999999552965164,0.29388824105262756,0.002394201699644327,9.668384552001953,0.03999999910593033,0.0,0.0,0.0,0.03999999910593033,0.0,0.0,0.0,0.03999999910593033
1779481146.3119469,48736,1779481146,315583166,imu_link,0.015668168663978577,-0.0021661659702658653,0.9868922829627991,0.16057659685611725,0.0024999999441206455,0.0,0.0,0.0,0.0024999999441206455,0.0,0.0,0.0,0.0024999999441206455,0.0,0.0,0.0,0.019999999552965164,0.0,0.0,0.0,0.019999999552965164,0.0,0.0,0.0,0.019999999552965164,0.29867666959762573,0.004788403399288654,9.658209800720215,0.03999999910593033,0.0,0.0,0.0,0.03999999910593033,0.0,0.0,0.0,0.03999999910593033
1779481146.3337932,48737,1779481146,324583166,imu_link,0.014827096834778786,-0.001351810758933425,0.986904501914978,0.16058966517448425,0.0024999999441206455,0.0,0.0,0.0,0.0024999999441206455,0.0,0.0,0.0,0.0024999999441206455,0.0,0.0,0.0,0.019999999552965164,0.0,0.0,0.0,0.019999999552965164,0.0,0.0,0.0,0.019999999552965164,0.2759317457675934,0.02753331884741783,9.641449928283691,0.03999999910593033,0.0,0.0,0.0,0.03999999910593033,0.0,0.0,0.0,0.03999999910593033
1779481146.339606,48738,1779481146,329583166,imu_link,0.014827096834778786,-0.001351810758933425,0.986904501914978,0.16058966517448425,0.0024999999441206455,0.0,0.0,0.0,0.0024999999441206455,0.0,0.0,0.0,0.0024999999441206455,0.0,0.0,0.0,0.019999999552965164,0.0,0.0,0.0,0.019999999552965164,0.0,0.0,0.0,0.019999999552965164,0.2759317457675934,0.02753331884741783,9.641449928283691,0.03999999910593033,0.0,0.0,0.0,0.03999999910593033,0.0,0.0,0.0,0.03999999910593033
1779481146.3611717,48739,1779481146,370583166,imu_link,0.018761415034532547,-0.00257455138489604,0.9868391752243042,0.1605660617351532,0.0024999999441206455,0.0,0.0,0.0,0.0024999999441206455,0.0,0.0,0.0,0.0024999999441206455,0.0,0.0,0.0,0.019999999552965164,0.0,0.0,0.0,0.019999999552965164,0.0,0.0,0.0,0.019999999552965164,0.31842881441116333,0.015562310814857483,9.619902610778809,0.03999999910593033,0.0,0.0,0.0,0.03999999910593033,0.0,0.0,0.0,0.03999999910593033
1779481146.36678,48740,1779481146,372583166,imu_link,0.018181703984737396,-0.0022189379669725895,0.9868495464324951,0.16057299077510834,0.0024999999441206455,0.0,0.0,0.0,0.0024999999441206455,0.0,0.0,0.0,0.0024999999441206455,0.0,0.0,0.0,0.019999999552965164,0.0,0.0,0.0,0.019999999552965164,0.0,0.0,0.0,0.019999999552965164,0.23403321206569672,0.0628477931022644,9.642048835754395,0.03999999910593033,0.0,0.0,0.0,0.03999999910593033,0.0,0.0,0.0,0.03999999910593033
1779481146.3722835,48741,1779481146,377583166,imu_link,0.018181703984737396,-0.0022189379669725895,0.9868495464324951,0.16057299077510834,0.0024999999441206455,0.0,0.0,0.0,0.0024999999441206455,0.0,0.0,0.0,0.0024999999441206455,0.0,0.0,0.0,0.019999999552965164,0.0,0.0,0.0,0.019999999552965164,0.0,0.0,0.0,0.019999999552965164,0.23403321206569672,0.0628477931022644,9.642048835754395,0.03999999910593033,0.0,0.0,0.0,0.03999999910593033,0.0,0.0,0.0,0.03999999910593033
1779481146.3778174,48742,1779481146,382583166,imu_link,0.017442991957068443,-0.0022461689077317715,0.9868627786636353,0.16057299077510834,0.0024999999441206455,0.0,0.0,0.0,0.0024999999441206455,0.0,0.0,0.0,0.0024999999441206455,0.0,0.0,0.0,0.019999999552965164,0.0,0.0,0.0,0.019999999552965164,0.0,0.0,0.0,0.019999999552965164,0.29448679089546204,0.002394201699644327,9.628880500793457,0.03999999910593033,0.0,0.0,0.0,0.03999999910593033,0.0,0.0,0.0,0.03999999910593033
1779481146.3833585,48743,1779481146,387583166,imu_link,0.016725054010748863,-0.00206495332531631,0.986875057220459,0.16057655215263367,0.0024999999441206455,0.0,0.0,0.0,0.0024999999441206455,0.0,0.0,0.0,0.0024999999441206455,0.0,0.0,0.0,0.019999999552965164,0.0,0.0,0.0,0.019999999552965164,0.0,0.0,0.0,0.019999999552965164,0.28371289372444153,0.016160860657691956,9.670180320739746,0.03999999910593033,0.0,0.0,0.0,0.03999999910593033,0.0,0.0,0.0,0.03999999910593033
1779481146.3893151,48744,1779481146,392583166,imu_link,0.016725054010748863,-0.00206495332531631,0.986875057220459,0.16057655215263367,0.0024999999441206455,0.0,0.0,0.0,0.0024999999441206455,0.0,0.0,0.0,0.0024999999441206455,0.0,0.0,0.0,0.019999999552965164,0.0,0.0,0.0,0.019999999552965164,0.0,0.0,0.0,0.019999999552965164,0.28371289372444153,0.016160860657691956,9.670180320739746,0.03999999910593033,0.0,0.0,0.0,0.03999999910593033,0.0,0.0,0.0,0.03999999910593033
1779481146.3950744,48745,1779481146,397583166,imu_link,0.01646547205746174,-0.0013669467298313975,0.9868787527084351,0.16058844327926636,0.0024999999441206455,0.0,0.0,0.0,0.0024999999441206455,0.0,0.0,0.0,0.0024999999441206455,0.0,0.0,0.0,0.019999999552965164,0.0,0.0,0.0,0.019999999552965164,0.0,0.0,0.0,0.019999999552965164,0.3010708689689636,0.05506663769483566,9.654618263244629,0.03999999910593033,0.0,0.0,0.0,0.03999999910593033,0.0,0.0,0.0,0.03999999910593033
1779481146.417171,48746,1779481146,406583166,imu_link,0.015551101416349411,-0.002099686535075307,0.9868940711021423,0.1605774462223053,0.0024999999441206455,0.0,0.0,0.0,0.0024999999441206455,0.0,0.0,0.0,0.0024999999441206455,0.0,0.0,0.0,0.019999999552965164,0.0,0.0,0.0,0.019999999552965164,0.0,0.0,0.0,0.019999999552965164,0.304063618183136,0.008978256024420261,9.66658878326416,0.03999999910593033,0.0,0.0,0.0,0.03999999910593033,0.0,0.0,0.0,0.03999999910593033
1779481146.4385006,48747,1779481146,447583166,imu_link,0.013109366409480572,0.000573333993088454,0.9869248270988464,0.16061937808990479,0.0024999999441206455,0.0,0.0,0.0,0.0024999999441206455,0.0,0.0,0.0,0.0024999999441206455,0.0,0.0,0.0,0.019999999552965164,0.0,0.0,0.0,0.019999999552965164,0.0,0.0,0.0,0.019999999552965164,0.2693476974964142,0.0347159244120121,9.650428771972656,0.03999999910593033,0.0,0.0,0.0,0.03999999910593033,0.0,0.0,0.0,0.03999999910593033
1779481146.4446864,48748,1779481146,449583166,imu_link,0.01356175821274519,6.426541222026572e-05,0.986920177936554,0.1606115847826004,0.0024999999441206455,0.0,0.0,0.0,0.0024999999441206455,0.0,0.0,0.0,0.0024999999441206455,0.0,0.0,0.0,0.019999999552965164,0.0,0.0,0.0,0.019999999552965164,0.0,0.0,0.0,0.019999999552965164,0.284311443567276,0.021547814831137657,9.63067626953125,0.03999999910593033,0.0,0.0,0.0,0.03999999910593033,0.0,0.0,0.0,0.03999999910593033
1779481146.4499536,48749,1779481146,454583166,imu_link,0.01356175821274519,6.426541222026572e-05,0.986920177936554,0.1606115847826004,0.0024999999441206455,0.0,0.0,0.0,0.0024999999441206455,0.0,0.0,0.0,0.0024999999441206455,0.0,0.0,0.0,0.019999999552965164,0.0,0.0,0.0,0.019999999552965164,0.0,0.0,0.0,0.019999999552965164,0.284311443567276,0.021547814831137657,9.63067626953125,0.03999999910593033,0.0,0.0,0.0,0.03999999910593033,0.0,0.0,0.0,0.03999999910593033
1779481146.45458,48750,1779481146,459583166,imu_link,0.014162629842758179,-0.0003685756819322705,0.9869129061698914,0.16060441732406616,0.0024999999441206455,0.0,0.0,0.0,0.0024999999441206455,0.0,0.0,0.0,0.0024999999441206455,0.0,0.0,0.0,0.019999999552965164,0.0,0.0,0.0,0.019999999552965164,0.0,0.0,0.0,0.019999999552965164,0.30466216802597046,0.019153613597154617,9.596558570861816,0.03999999910593033,0.0,0.0,0.0,0.03999999910593033,0.0,0.0,0.0,0.03999999910593033
1779481146.460427,48751,1779481146,464583166,imu_link,0.01475741621106863,-0.0008088508620858192,0.9869050979614258,0.1605970561504364,0.0024999999441206455,0.0,0.0,0.0,0.0024999999441206455,0.0,0.0,0.0,0.0024999999441206455,0.0,0.0,0.0,0.019999999552965164,0.0,0.0,0.0,0.019999999552965164,0.0,0.0,0.0,0.019999999552965164,0.2950853407382965,0.023942016065120697,9.619902610778809,0.03999999910593033,0.0,0.0,0.0,0.03999999910593033,0.0,0.0,0.0,0.03999999910593033
1779481146.4663715,48752,1779481146,469583166,imu_link,0.01475741621106863,-0.0008088508620858192,0.9869050979614258,0.1605970561504364,0.0024999999441206455,0.0,0.0,0.0,0.0024999999441206455,0.0,0.0,0.0,0.0024999999441206455,0.0,0.0,0.0,0.019999999552965164,0.0,0.0,0.0,0.019999999552965164,0.0,0.0,0.0,0.019999999552965164,0.2950853407382965,0.023942016065120697,9.619902610778809,0.03999999910593033,0.0,0.0,0.0,0.03999999910593033,0.0,0.0,0.0,0.03999999910593033
1779481146.472194,48753,1779481146,474583166,imu_link,0.015053789131343365,-0.0014929540921002626,0.9869014620780945,0.16058647632598877,0.0024999999441206455,0.0,0.0,0.0,0.0024999999441206455,0.0,0.0,0.0,0.0024999999441206455,0.0,0.0,0.0,0.019999999552965164,0.0,0.0,0.0,0.019999999552965164,0.0,0.0,0.0,0.019999999552965164,0.28790274262428284,0.02214636467397213,9.61571216583252,0.03999999910593033,0.0,0.0,0.0,0.03999999910593033,0.0,0.0,0.0,0.03999999910593033
1779481146.493493,48754,1779481146,483583166,imu_link,0.015510221011936665,-0.0025710267946124077,0.986894965171814,0.1605696678161621,0.0024999999441206455,0.0,0.0,0.0,0.0024999999441206455,0.0,0.0,0.0,0.0024999999441206455,0.0,0.0,0.0,0.019999999552965164,0.0,0.0,0.0,0.019999999552965164,0.0,0.0,0.0,0.019999999552965164,0.2914940416812897,0.015562310814857483,9.596558570861816,0.03999999910593033,0.0,0.0,0.0,0.03999999910593033,0.0,0.0,0.0,0.03999999910593033
1779481146.5145671,48755,1779481146,529583166,imu_link,0.013289581052958965,0.0008986819884739816,0.9869216680526733,0.1606227457523346,0.0024999999441206455,0.0,0.0,0.0,0.0024999999441206455,0.0,0.0,0.0,0.0024999999441206455,0.0,0.0,0.0,0.019999999552965164,0.0,0.0,0.0,0.019999999552965164,0.0,0.0,0.0,0.019999999552965164,0.2783259451389313,0.02753331884741783,9.658807754516602,0.03999999910593033,0.0,0.0,0.0,0.03999999910593033,0.0,0.0,0.0,0.03999999910593033
1779481146.5262032,48756,1779481146,531583166,imu_link,0.013749660924077034,0.0003939802700188011,0.9869169592857361,0.1606147587299347,0.0024999999441206455,0.0,0.0,0.0,0.0024999999441206455,0.0,0.0,0.0,0.0024999999441206455,0.0,0.0,0.0,0.019999999552965164,0.0,0.0,0.0,0.019999999552965164,0.0,0.0,0.0,0.019999999552965164,0.2950853407382965,0.02274491637945175,9.642048835754395,0.03999999910593033,0.0,0.0,0.0,0.03999999910593033,0.0,0.0,0.0,0.03999999910593033
1779481146.5300274,48757,1779481146,536583166,imu_link,0.013749660924077034,0.0003939802700188011,0.9869169592857361,0.1606147587299347,0.0024999999441206455,0.0,0.0,0.0,0.0024999999441206455,0.0,0.0,0.0,0.0024999999441206455,0.0,0.0,0.0,0.019999999552965164,0.0,0.0,0.0,0.019999999552965164,0.0,0.0,0.0,0.019999999552965164,0.2950853407382965,0.02274491637945175,9.642048835754395,0.03999999910593033,0.0,0.0,0.0,0.03999999910593033,0.0,0.0,0.0,0.03999999910593033
1779481146.5341177,48758,1779481146,541583166,imu_link,0.014012224972248077,-0.0002986113540828228,0.9869149327278137,0.16060467064380646,0.0024999999441206455,0.0,0.0,0.0,0.0024999999441206455,0.0,0.0,0.0,0.0024999999441206455,0.0,0.0,0.0,0.019999999552965164,0.0,0.0,0.0,0.019999999552965164,0.0,0.0,0.0,0.019999999552965164,0.2801215946674347,0.01735796220600605,9.663596153259277,0.03999999910593033,0.0,0.0,0.0,0.03999999910593033,0.0,0.0,0.0,0.03999999910593033
1779481146.539987,48759,1779481146,546583166,imu_link,0.014714050106704235,-0.0005330377025529742,0.9869053959846497,0.16060000658035278,0.0024999999441206455,0.0,0.0,0.0,0.0024999999441206455,0.0,0.0,0.0,0.0024999999441206455,0.0,0.0,0.0,0.019999999552965164,0.0,0.0,0.0,0.019999999552965164,0.0,0.0,0.0,0.019999999552965164,0.295683890581131,0.032920271158218384,9.610325813293457,0.03999999910593033,0.0,0.0,0.0,0.03999999910593033,0.0,0.0,0.0,0.03999999910593033
1779481146.5457368,48760,1779481146,551583166,imu_link,0.014714050106704235,-0.0005330377025529742,0.9869053959846497,0.16060000658035278,0.0024999999441206455,0.0,0.0,0.0,0.0024999999441206455,0.0,0.0,0.0,0.0024999999441206455,0.0,0.0,0.0,0.019999999552965164,0.0,0.0,0.0,0.019999999552965164,0.0,0.0,0.0,0.019999999552965164,0.295683890581131,0.032920271158218384,9.610325813293457,0.03999999910593033,0.0,0.0,0.0,0.03999999910593033,0.0,0.0,0.0,0.03999999910593033
1779481146.5523386,48761,1779481146,556583166,imu_link,0.015329388901591301,-0.000952254282310605,0.9868968725204468,0.1605927050113678,0.0024999999441206455,0.0,0.0,0.0,0.0024999999441206455,0.0,0.0,0.0,0.0024999999441206455,0.0,0.0,0.0,0.019999999552965164,0.0,0.0,0.0,0.019999999552965164,0.0,0.0,0.0,0.019999999552965164,0.31543606519699097,0.020350713282823563,9.676764488220215,0.03999999910593033,0.0,0.0,0.0,0.03999999910593033,0.0,0.0,0.0,0.03999999910593033
1779481146.5737655,48762,1779481146,565583166,imu_link,0.014255737885832787,-0.0014198730932548642,0.9869133234024048,0.16058708727359772,0.0024999999441206455,0.0,0.0,0.0,0.0024999999441206455,0.0,0.0,0.0,0.0024999999441206455,0.0,0.0,0.0,0.019999999552965164,0.0,0.0,0.0,0.019999999552965164,0.0,0.0,0.0,0.019999999552965164,0.284311443567276,0.02274491637945175,9.63306999206543,0.03999999910593033,0.0,0.0,0.0,0.03999999910593033,0.0,0.0,0.0,0.03999999910593033
1779481146.5794566,48763,1779481146,570583166,imu_link,0.014255737885832787,-0.0014198730932548642,0.9869133234024048,0.16058708727359772,0.0024999999441206455,0.0,0.0,0.0,0.0024999999441206455,0.0,0.0,0.0,0.0024999999441206455,0.0,0.0,0.0,0.019999999552965164,0.0,0.0,0.0,0.019999999552965164,0.0,0.0,0.0,0.019999999552965164,0.284311443567276,0.02274491637945175,9.63306999206543,0.03999999910593033,0.0,0.0,0.0,0.03999999910593033,0.0,0.0,0.0,0.03999999910593033
1779481146.6007555,48764,1779481146,611583166,imu_link,0.017719147726893425,-0.003645670134574175,0.9868574142456055,0.1605508178472519,0.0024999999441206455,0.0,0.0,0.0,0.0024999999441206455,0.0,0.0,0.0,0.0024999999441206455,0.0,0.0,0.0,0.019999999552965164,0.0,0.0,0.0,0.019999999552965164,0.0,0.0,0.0,0.019999999552965164,0.29209259152412415,0.010175356641411781,9.649829864501953,0.03999999910593033,0.0,0.0,0.0,0.03999999910593033,0.0,0.0,0.0,0.03999999910593033
1779481146.60612,48765,1779481146,613583166,imu_link,0.017227593809366226,-0.003169475821778178,0.9868663549423218,0.1605590134859085,0.0024999999441206455,0.0,0.0,0.0,0.0024999999441206455,0.0,0.0,0.0,0.0024999999441206455,0.0,0.0,0.0,0.019999999552965164,0.0,0.0,0.0,0.019999999552965164,0.0,0.0,0.0,0.019999999552965164,0.28969839215278625,0.025737667456269264,9.607931137084961,0.03999999910593033,0.0,0.0,0.0,0.03999999910593033,0.0,0.0,0.0,0.03999999910593033
1779481146.6115015,48766,1779481146,618583166,imu_link,0.017227593809366226,-0.003169475821778178,0.9868663549423218,0.1605590134859085,0.0024999999441206455,0.0,0.0,0.0,0.0024999999441206455,0.0,0.0,0.0,0.0024999999441206455,0.0,0.0,0.0,0.019999999552965164,0.0,0.0,0.0,0.019999999552965164,0.0,0.0,0.0,0.019999999552965164,0.28969839215278625,0.025737667456269264,9.607931137084961,0.03999999910593033,0.0,0.0,0.0,0.03999999910593033,0.0,0.0,0.0,0.03999999910593033
1779481146.6171014,48767,1779481146,623583166,imu_link,0.016649752855300903,-0.0027071123477071524,0.9868764281272888,0.16056686639785767,0.0024999999441206455,0.0,0.0,0.0,0.0024999999441206455,0.0,0.0,0.0,0.0024999999441206455,0.0,0.0,0.0,0.019999999552965164,0.0,0.0,0.0,0.019999999552965164,0.0,0.0,0.0,0.019999999552965164,0.2777273952960968,0.028131868690252304,9.70549488067627,0.03999999910593033,0.0,0.0,0.0,0.03999999910593033,0.0,0.0,0.0,0.03999999910593033
1779481146.6229806,48768,1779481146,628583166,imu_link,0.016104266047477722,-0.002206153701990843,0.9868853688240051,0.160575270652771,0.0024999999441206455,0.0,0.0,0.0,0.0024999999441206455,0.0,0.0,0.0,0.0024999999441206455,0.0,0.0,0.0,0.019999999552965164,0.0,0.0,0.0,0.019999999552965164,0.0,0.0,0.0,0.019999999552965164,0.28311434388160706,0.02753331884741783,9.628281593322754,0.03999999910593033,0.0,0.0,0.0,0.03999999910593033,0.0,0.0,0.0,0.03999999910593033
1779481146.629061,48769,1779481146,633583166,imu_link,0.016104266047477722,-0.002206153701990843,0.9868853688240051,0.160575270652771,0.0024999999441206455,0.0,0.0,0.0,0.0024999999441206455,0.0,0.0,0.0,0.0024999999441206455,0.0,0.0,0.0,0.019999999552965164,0.0,0.0,0.0,0.019999999552965164,0.0,0.0,0.0,0.019999999552965164,0.28311434388160706,0.02753331884741783,9.628281593322754,0.03999999910593033,0.0,0.0,0.0,0.03999999910593033,0.0,0.0,0.0,0.03999999910593033
1779481146.6347342,48770,1779481146,638583166,imu_link,0.015494064427912235,-0.0017797730397433043,0.9868947863578796,0.16058240830898285,0.0024999999441206455,0.0,0.0,0.0,0.0024999999441206455,0.0,0.0,0.0,0.0024999999441206455,0.0,0.0,0.0,0.019999999552965164,0.0,0.0,0.0,0.019999999552965164,0.0,0.0,0.0,0.019999999552965164,0.264559268951416,0.031124621629714966,9.624092102050781,0.03999999910593033,0.0,0.0,0.0,0.03999999910593033,0.0,0.0,0.0,0.03999999910593033
1779481146.656765,48771,1779481146,647583166,imu_link,0.014633896760642529,-0.0009863334707915783,0.9869070053100586,0.16059529781341553,0.0024999999441206455,0.0,0.0,0.0,0.0024999999441206455,0.0,0.0,0.0,0.0024999999441206455,0.0,0.0,0.0,0.019999999552965164,0.0,0.0,0.0,0.019999999552965164,0.0,0.0,0.0,0.019999999552965164,0.2825157940387726,0.02513911761343479,9.602544784545898,0.03999999910593033,0.0,0.0,0.0,0.03999999910593033,0.0,0.0,0.0,0.03999999910593033
1779481146.678459,48772,1779481146,689583166,imu_link,0.01396280899643898,-0.004643067251890898,0.9869149923324585,0.16054169833660126,0.0024999999441206455,0.0,0.0,0.0,0.0024999999441206455,0.0,0.0,0.0,0.0024999999441206455,0.0,0.0,0.0,0.019999999552965164,0.0,0.0,0.0,0.019999999552965164,0.0,0.0,0.0,0.019999999552965164,0.28131869435310364,-0.0017956512747332454,9.64923095703125,0.03999999910593033,0.0,0.0,0.0,0.03999999910593033,0.0,0.0,0.0,0.03999999910593033
1779481146.6836228,48773,1779481146,691583166,imu_link,0.01421341672539711,-0.004005529917776585,0.9869126677513123,0.1605515331029892,0.0024999999441206455,0.0,0.0,0.0,0.0024999999441206455,0.0,0.0,0.0,0.0024999999441206455,0.0,0.0,0.0,0.019999999552965164,0.0,0.0,0.0,0.019999999552965164,0.0,0.0,0.0,0.019999999552965164,0.2885012924671173,-0.005985504016280174,9.634865760803223,0.03999999910593033,0.0,0.0,0.0,0.03999999910593033,0.0,0.0,0.0,0.03999999910593033
1779481146.6895192,48774,1779481146,696583166,imu_link,0.01421341672539711,-0.004005529917776585,0.9869126677513123,0.1605515331029892,0.0024999999441206455,0.0,0.0,0.0,0.0024999999441206455,0.0,0.0,0.0,0.0024999999441206455,0.0,0.0,0.0,0.019999999552965164,0.0,0.0,0.0,0.019999999552965164,0.0,0.0,0.0,0.019999999552965164,0.2885012924671173,-0.005985504016280174,9.634865760803223,0.03999999910593033,0.0,0.0,0.0,0.03999999910593033,0.0,0.0,0.0,0.03999999910593033
1779481146.6954434,48775,1779481146,701583166,imu_link,0.014576779678463936,-0.0033608926460146904,0.9869080185890198,0.16056153178215027,0.0024999999441206455,0.0,0.0,0.0,0.0024999999441206455,0.0,0.0,0.0,0.0024999999441206455,0.0,0.0,0.0,0.019999999552965164,0.0,0.0,0.0,0.019999999552965164,0.0,0.0,0.0,0.019999999552965164,0.2992752194404602,0.011971008032560349,9.642048835754395,0.03999999910593033,0.0,0.0,0.0,0.03999999910593033,0.0,0.0,0.0,0.03999999910593033
1779481146.7003899,48776,1779481146,706583166,imu_link,0.01474553532898426,-0.0026397614274173975,0.9869059920310974,0.16057242453098297,0.0024999999441206455,0.0,0.0,0.0,0.0024999999441206455,0.0,0.0,0.0,0.0024999999441206455,0.0,0.0,0.0,0.019999999552965164,0.0,0.0,0.0,0.019999999552965164,0.0,0.0,0.0,0.019999999552965164,0.2914940416812897,0.018555063754320145,9.674370765686035,0.03999999910593033,0.0,0.0,0.0,0.03999999910593033,0.0,0.0,0.0,0.03999999910593033
1779481146.7060406,48777,1779481146,711583166,imu_link,0.01474553532898426,-0.0026397614274173975,0.9869059920310974,0.16057242453098297,0.0024999999441206455,0.0,0.0,0.0,0.0024999999441206455,0.0,0.0,0.0,0.0024999999441206455,0.0,0.0,0.0,0.019999999552965164,0.0,0.0,0.0,0.019999999552965164,0.0,0.0,0.0,0.019999999552965164,0.2914940416812897,0.018555063754320145,9.674370765686035,0.03999999910593033,0.0,0.0,0.0,0.03999999910593033,0.0,0.0,0.0,0.03999999910593033
1779481146.711394,48778,1779481146,716583166,imu_link,0.01460275799036026,-0.001909000100567937,0.986907958984375,0.1605832874774933,0.0024999999441206455,0.0,0.0,0.0,0.0024999999441206455,0.0,0.0,0.0,0.0024999999441206455,0.0,0.0,0.0,0.019999999552965164,0.0,0.0,0.0,0.019999999552965164,0.0,0.0,0.0,0.019999999552965164,0.27653029561042786,0.0293289702385664,9.64683723449707,0.03999999910593033,0.0,0.0,0.0,0.03999999910593033,0.0,0.0,0.0,0.03999999910593033
1779481146.7334313,48779,1779481146,725583166,imu_link,0.01426283922046423,-0.0007907164399512112,0.9869118332862854,0.16059979796409607,0.0024999999441206455,0.0,0.0,0.0,0.0024999999441206455,0.0,0.0,0.0,0.0024999999441206455,0.0,0.0,0.0,0.019999999552965164,0.0,0.0,0.0,0.019999999552965164,0.0,0.0,0.0,0.019999999552965164,0.28371289372444153,0.010175356641411781,9.655217170715332,0.03999999910593033,0.0,0.0,0.0,0.03999999910593033,0.0,0.0,0.0,0.03999999910593033
1779481146.7550414,48780,1779481146,769583166,imu_link,0.018034998327493668,-0.0018497349228709936,0.9868523478507996,0.16057783365249634,0.0024999999441206455,0.0,0.0,0.0,0.0024999999441206455,0.0,0.0,0.0,0.0024999999441206455,0.0,0.0,0.0,0.019999999552965164,0.0,0.0,0.0,0.019999999552965164,0.0,0.0,0.0,0.019999999552965164,0.2968810200691223,0.026336219161748886,9.606734275817871,0.03999999910593033,0.0,0.0,0.0,0.03999999910593033,0.0,0.0,0.0,0.03999999910593033
1779481146.7607858,48781,1779481146,771583166,imu_link,0.017412852495908737,-0.0015666942344978452,0.9868630766868591,0.16058358550071716,0.0024999999441206455,0.0,0.0,0.0,0.0024999999441206455,0.0,0.0,0.0,0.0024999999441206455,0.0,0.0,0.0,0.019999999552965164,0.0,0.0,0.0,0.019999999552965164,0.0,0.0,0.0,0.019999999552965164,0.2801215946674347,0.03950432687997818,9.64803409576416,0.03999999910593033,0.0,0.0,0.0,0.03999999910593033,0.0,0.0,0.0,0.03999999910593033
1779481146.766036,48782,1779481146,776583166,imu_link,0.017412852495908737,-0.0015666942344978452,0.9868630766868591,0.16058358550071716,0.0024999999441206455,0.0,0.0,0.0,0.0024999999441206455,0.0,0.0,0.0,0.0024999999441206455,0.0,0.0,0.0,0.019999999552965164,0.0,0.0,0.0,0.019999999552965164,0.0,0.0,0.0,0.019999999552965164,0.2801215946674347,0.03950432687997818,9.64803409576416,0.03999999910593033,0.0,0.0,0.0,0.03999999910593033,0.0,0.0,0.0,0.03999999910593033
1779481146.7715907,48783,1779481146,781583166,imu_link,0.016731679439544678,-0.0012714625336229801,0.9868742823600769,0.1605895310640335,0.0024999999441206455,0.0,0.0,0.0,0.0024999999441206455,0.0,0.0,0.0,0.0024999999441206455,0.0,0.0,0.0,0.019999999552965164,0.0,0.0,0.0,0.019999999552965164,0.0,0.0,0.0,0.019999999552965164,0.2735375463962555,0.04010287672281265,9.649829864501953,0.03999999910593033,0.0,0.0,0.0,0.03999999910593033,0.0,0.0,0.0,0.03999999910593033
1779481146.7773166,48784,1779481146,786583166,imu_link,0.016055619344115257,-0.001572593580931425,0.9868857264518738,0.1605854332447052,0.0024999999441206455,0.0,0.0,0.0,0.0024999999441206455,0.0,0.0,0.0,0.0024999999441206455,0.0,0.0,0.0,0.019999999552965164,0.0,0.0,0.0,0.019999999552965164,0.0,0.0,0.0,0.019999999552965164,0.30286651849746704,0.015562310814857483,9.598953247070312,0.03999999910593033,0.0,0.0,0.0,0.03999999910593033,0.0,0.0,0.0,0.03999999910593033
1779481146.7825034,48785,1779481146,791583166,imu_link,0.016055619344115257,-0.001572593580931425,0.9868857264518738,0.1605854332447052,0.0024999999441206455,0.0,0.0,0.0,0.0024999999441206455,0.0,0.0,0.0,0.0024999999441206455,0.0,0.0,0.0,0.019999999552965164,0.0,0.0,0.0,0.019999999552965164,0.0,0.0,0.0,0.019999999552965164,0.30286651849746704,0.015562310814857483,9.598953247070312,0.03999999910593033,0.0,0.0,0.0,0.03999999910593033,0.0,0.0,0.0,0.03999999910593033
1779481146.7886117,48786,1779481146,796583166,imu_link,0.015342213213443756,-0.0017875597113743424,0.9868972301483154,0.16058267652988434,0.0024999999441206455,0.0,0.0,0.0,0.0024999999441206455,0.0,0.0,0.0,0.0024999999441206455,0.0,0.0,0.0,0.019999999552965164,0.0,0.0,0.0,0.019999999552965164,0.0,0.0,0.0,0.019999999552965164,0.27473464608192444,0.002992752008140087,9.592369079589844,0.03999999910593033,0.0,0.0,0.0,0.03999999910593033,0.0,0.0,0.0,0.03999999910593033
1779481146.8113966,48787,1779481146,805583166,imu_link,0.014244543388485909,-0.0013826106442138553,0.9869132041931152,0.1605895757675171,0.0024999999441206455,0.0,0.0,0.0,0.0024999999441206455,0.0,0.0,0.0,0.0024999999441206455,0.0,0.0,0.0,0.019999999552965164,0.0,0.0,0.0,0.019999999552965164,0.0,0.0,0.0,0.019999999552965164,0.28072014451026917,0.016759412363171577,9.637858390808105,0.03999999910593033,0.0,0.0,0.0,0.03999999910593033,0.0,0.0,0.0,0.03999999910593033
1779481146.81742,48788,1779481146,810583166,imu_link,0.014244543388485909,-0.0013826106442138553,0.9869132041931152,0.1605895757675171,0.0024999999441206455,0.0,0.0,0.0,0.0024999999441206455,0.0,0.0,0.0,0.0024999999441206455,0.0,0.0,0.0,0.019999999552965164,0.0,0.0,0.0,0.019999999552965164,0.0,0.0,0.0,0.019999999552965164,0.28072014451026917,0.016759412363171577,9.637858390808105,0.03999999910593033,0.0,0.0,0.0,0.03999999910593033,0.0,0.0,0.0,0.03999999910593033
1779481146.8382204,48789,1779481146,850583166,imu_link,0.016495121642947197,0.00194290850777179,0.9868699908256531,0.16063368320465088,0.0024999999441206455,0.0,0.0,0.0,0.0024999999441206455,0.0,0.0,0.0,0.0024999999441206455,0.0,0.0,0.0,0.019999999552965164,0.0,0.0,0.0,0.019999999552965164,0.0,0.0,0.0,0.019999999552965164,0.2849099934101105,0.04010287672281265,9.60912799835205,0.03999999910593033,0.0,0.0,0.0,0.03999999910593033,0.0,0.0,0.0,0.03999999910593033
1779481146.8438518,48790,1779481146,852583166,imu_link,0.016111301258206367,0.0013772824313491583,0.9868783950805664,0.1606263518333435,0.0024999999441206455,0.0,0.0,0.0,0.0024999999441206455,0.0,0.0,0.0,0.0024999999441206455,0.0,0.0,0.0,0.019999999552965164,0.0,0.0,0.0,0.019999999552965164,0.0,0.0,0.0,0.019999999552965164,0.2801215946674347,0.02753331884741783,9.649829864501953,0.03999999910593033,0.0,0.0,0.0,0.03999999910593033,0.0,0.0,0.0,0.03999999910593033
1779481146.8494751,48791,1779481146,857583166,imu_link,0.016111301258206367,0.0013772824313491583,0.9868783950805664,0.1606263518333435,0.0024999999441206455,0.0,0.0,0.0,0.0024999999441206455,0.0,0.0,0.0,0.0024999999441206455,0.0,0.0,0.0,0.019999999552965164,0.0,0.0,0.0,0.019999999552965164,0.0,0.0,0.0,0.019999999552965164,0.2801215946674347,0.02753331884741783,9.649829864501953,0.03999999910593033,0.0,0.0,0.0,0.03999999910593033,0.0,0.0,0.0,0.03999999910593033
1779481146.855275,48792,1779481146,862583166,imu_link,0.015672804787755013,0.0007772890385240316,0.986887514591217,0.1606186479330063,0.0024999999441206455,0.0,0.0,0.0,0.0024999999441206455,0.0,0.0,0.0,0.0024999999441206455,0.0,0.0,0.0,0.019999999552965164,0.0,0.0,0.0,0.019999999552965164,0.0,0.0,0.0,0.019999999552965164,0.27234044671058655,0.016160860657691956,9.653421401977539,0.03999999910593033,0.0,0.0,0.0,0.03999999910593033,0.0,0.0,0.0,0.03999999910593033
1779481146.860935,48793,1779481146,867583166,imu_link,0.01528655830770731,0.00014526427548844367,0.9868950843811035,0.1606101393699646,0.0024999999441206455,0.0,0.0,0.0,0.0024999999441206455,0.0,0.0,0.0,0.0024999999441206455,0.0,0.0,0.0,0.019999999552965164,0.0,0.0,0.0,0.019999999552965164,0.0,0.0,0.0,0.019999999552965164,0.284311443567276,0.03531447425484657,9.63306999206543,0.03999999910593033,0.0,0.0,0.0,0.03999999910593033,0.0,0.0,0.0,0.03999999910593033
1779481146.8668158,48794,1779481146,872583166,imu_link,0.01528655830770731,0.00014526427548844367,0.9868950843811035,0.1606101393699646,0.0024999999441206455,0.0,0.0,0.0,0.0024999999441206455,0.0,0.0,0.0,0.0024999999441206455,0.0,0.0,0.0,0.019999999552965164,0.0,0.0,0.0,0.019999999552965164,0.0,0.0,0.0,0.019999999552965164,0.284311443567276,0.03531447425484657,9.63306999206543,0.03999999910593033,0.0,0.0,0.0,0.03999999910593033,0.0,0.0,0.0,0.03999999910593033
1779481146.872846,48795,1779481146,877583166,imu_link,0.014912137761712074,-0.0004987312131561339,0.9869021773338318,0.16060137748718262,0.0024999999441206455,0.0,0.0,0.0,0.0024999999441206455,0.0,0.0,0.0,0.0024999999441206455,0.0,0.0,0.0,0.019999999552965164,0.0,0.0,0.0,0.019999999552965164,0.0,0.0,0.0,0.019999999552965164,0.2801215946674347,0.023343466222286224,9.633668899536133,0.03999999910593033,0.0,0.0,0.0,0.03999999910593033,0.0,0.0,0.0,0.03999999910593033
1779481146.8941154,48796,1779481146,886583166,imu_link,0.01486120093613863,-0.0016688917530700564,0.986904501914978,0.16058404743671417,0.0024999999441206455,0.0,0.0,0.0,0.0024999999441206455,0.0,0.0,0.0,0.0024999999441206455,0.0,0.0,0.0,0.019999999552965164,0.0,0.0,0.0,0.019999999552965164,0.0,0.0,0.0,0.019999999552965164,0.2890998423099518,0.010773907415568829,9.660603523254395,0.03999999910593033,0.0,0.0,0.0,0.03999999910593033,0.0,0.0,0.0,0.03999999910593033
1779481146.9155002,48797,1779481146,930583166,imu_link,0.012292828410863876,0.001284029334783554,0.986933171749115,0.16062884032726288,0.0024999999441206455,0.0,0.0,0.0,0.0024999999441206455,0.0,0.0,0.0,0.0024999999441206455,0.0,0.0,0.0,0.019999999552965164,0.0,0.0,0.0,0.019999999552965164,0.0,0.0,0.0,0.019999999552965164,0.2669534981250763,0.03172317147254944,9.636661529541016,0.03999999910593033,0.0,0.0,0.0,0.03999999910593033,0.0,0.0,0.0,0.03999999910593033
1779481146.9209971,48798,1779481146,932583166,imu_link,0.012711494229733944,0.0007425189251080155,0.9869295954704285,0.16062095761299133,0.0024999999441206455,0.0,0.0,0.0,0.0024999999441206455,0.0,0.0,0.0,0.0024999999441206455,0.0,0.0,0.0,0.019999999552965164,0.0,0.0,0.0,0.019999999552965164,0.0,0.0,0.0,0.019999999552965164,0.28969839215278625,0.0071826050989329815,9.654019355773926,0.03999999910593033,0.0,0.0,0.0,0.03999999910593033,0.0,0.0,0.0,0.03999999910593033
1779481146.9268987,48799,1779481146,937583166,imu_link,0.012711494229733944,0.0007425189251080155,0.9869295954704285,0.16062095761299133,0.0024999999441206455,0.0,0.0,0.0,0.0024999999441206455,0.0,0.0,0.0,0.0024999999441206455,0.0,0.0,0.0,0.019999999552965164,0.0,0.0,0.0,0.019999999552965164,0.0,0.0,0.0,0.019999999552965164,0.28969839215278625,0.0071826050989329815,9.654019355773926,0.03999999910593033,0.0,0.0,0.0,0.03999999910593033,0.0,0.0,0.0,0.03999999910593033
1779481146.9326367,48800,1779481146,942583166,imu_link,0.01312192901968956,0.00012332815094850957,0.9869259595870972,0.160612091422081,0.0024999999441206455,0.0,0.0,0.0,0.0024999999441206455,0.0,0.0,0.0,0.0024999999441206455,0.0,0.0,0.0,0.019999999552965164,0.0,0.0,0.0,0.019999999552965164,0.0,0.0,0.0,0.019999999552965164,0.27712884545326233,0.012569558806717396,9.625887870788574,0.03999999910593033,0.0,0.0,0.0,0.03999999910593033,0.0,0.0,0.0,0.03999999910593033
1779481146.9380734,48801,1779481146,947583166,imu_link,0.013436142355203629,-0.0005479546962305903,0.9869231581687927,0.1606026589870453,0.0024999999441206455,0.0,0.0,0.0,0.0024999999441206455,0.0,0.0,0.0,0.0024999999441206455,0.0,0.0,0.0,0.019999999552965164,0.0,0.0,0.0,0.019999999552965164,0.0,0.0,0.0,0.019999999552965164,0.2759317457675934,0.002394201699644327,9.598953247070312,0.03999999910593033,0.0,0.0,0.0,0.03999999910593033,0.0,0.0,0.0,0.03999999910593033
1779481146.9434044,48802,1779481146,952583166,imu_link,0.013436142355203629,-0.0005479546962305903,0.9869231581687927,0.1606026589870453,0.0024999999441206455,0.0,0.0,0.0,0.0024999999441206455,0.0,0.0,0.0,0.0024999999441206455,0.0,0.0,0.0,0.019999999552965164,0.0,0.0,0.0,0.019999999552965164,0.0,0.0,0.0,0.019999999552965164,0.2759317457675934,0.002394201699644327,9.598953247070312,0.03999999910593033,0.0,0.0,0.0,0.03999999910593033,0.0,0.0,0.0,0.03999999910593033
1779481146.949259,48803,1779481146,957583166,imu_link,0.013918072916567326,-0.001116203609853983,0.9869173765182495,0.16059425473213196,0.0024999999441206455,0.0,0.0,0.0,0.0024999999441206455,0.0,0.0,0.0,0.0024999999441206455,0.0,0.0,0.0,0.019999999552965164,0.0,0.0,0.0,0.019999999552965164,0.0,0.0,0.0,0.019999999552965164,0.2932896912097931,0.0005985504249110818,9.638457298278809,0.03999999910593033,0.0,0.0,0.0,0.03999999910593033,0.0,0.0,0.0,0.03999999910593033
1779481146.9713871,48804,1779481146,966583166,imu_link,0.01459021121263504,-0.0020721193868666887,0.986908495426178,0.1605800986289978,0.0024999999441206455,0.0,0.0,0.0,0.0024999999441206455,0.0,0.0,0.0,0.0024999999441206455,0.0,0.0,0.0,0.019999999552965164,0.0,0.0,0.0,0.019999999552965164,0.0,0.0,0.0,0.019999999552965164,0.2759317457675934,0.013168109580874443,9.607931137084961,0.03999999910593033,0.0,0.0,0.0,0.03999999910593033,0.0,0.0,0.0,0.03999999910593033
1779481146.9770591,48805,1779481146,971583166,imu_link,0.01459021121263504,-0.0020721193868666887,0.986908495426178,0.1605800986289978,0.0024999999441206455,0.0,0.0,0.0,0.0024999999441206455,0.0,0.0,0.0,0.0024999999441206455,0.0,0.0,0.0,0.019999999552965164,0.0,0.0,0.0,0.019999999552965164,0.0,0.0,0.0,0.019999999552965164,0.2759317457675934,0.013168109580874443,9.607931137084961,0.03999999910593033,0.0,0.0,0.0,0.03999999910593033,0.0,0.0,0.0,0.03999999910593033
1779481146.9985154,48806,1779481147,11583166,imu_link,0.014371716417372227,0.001938213943503797,0.9869025349617004,0.1606379598379135,0.0024999999441206455,0.0,0.0,0.0,0.0024999999441206455,0.0,0.0,0.0,0.0024999999441206455,0.0,0.0,0.0,0.019999999552965164,0.0,0.0,0.0,0.019999999552965164,0.0,0.0,0.0,0.019999999552965164,0.2777273952960968,0.03890577703714371,9.668384552001953,0.03999999910593033,0.0,0.0,0.0,0.03999999910593033,0.0,0.0,0.0,0.03999999910593033
1779481147.0039718,48807,1779481147,13583166,imu_link,0.014518817886710167,0.0012687636772170663,0.9869030714035034,0.16062802076339722,0.0024999999441206455,0.0,0.0,0.0,0.0024999999441206455,0.0,0.0,0.0,0.0024999999441206455,0.0,0.0,0.0,0.019999999552965164,0.0,0.0,0.0,0.019999999552965164,0.0,0.0,0.0,0.019999999552965164,0.295683890581131,0.011372458189725876,9.650428771972656,0.03999999910593033,0.0,0.0,0.0,0.03999999910593033,0.0,0.0,0.0,0.03999999910593033
1779481147.009758,48808,1779481147,18583166,imu_link,0.014518817886710167,0.0012687636772170663,0.9869030714035034,0.16062802076339722,0.0024999999441206455,0.0,0.0,0.0,0.0024999999441206455,0.0,0.0,0.0,0.0024999999441206455,0.0,0.0,0.0,0.019999999552965164,0.0,0.0,0.0,0.019999999552965164,0.0,0.0,0.0,0.019999999552965164,0.295683890581131,0.011372458189725876,9.650428771972656,0.03999999910593033,0.0,0.0,0.0,0.03999999910593033,0.0,0.0,0.0,0.03999999910593033
1779481147.0153694,48809,1779481147,23583166,imu_link,0.014460975304245949,0.0005289055407047272,0.9869061708450317,0.16061772406101227,0.0024999999441206455,0.0,0.0,0.0,0.0024999999441206455,0.0,0.0,0.0,0.0024999999441206455,0.0,0.0,0.0,0.019999999552965164,0.0,0.0,0.0,0.019999999552965164,0.0,0.0,0.0,0.019999999552965164,0.2795230448246002,0.002394201699644327,9.692326545715332,0.03999999910593033,0.0,0.0,0.0,0.03999999910593033,0.0,0.0,0.0,0.03999999910593033
1779481147.0206575,48810,1779481147,28583166,imu_link,0.01451709121465683,-0.00020938593661412597,0.9869072437286377,0.16060703992843628,0.0024999999441206455,0.0,0.0,0.0,0.0024999999441206455,0.0,0.0,0.0,0.0024999999441206455,0.0,0.0,0.0,0.019999999552965164,0.0,0.0,0.0,0.019999999552965164,0.0,0.0,0.0,0.019999999552965164,0.2777273952960968,0.03531447425484657,9.618704795837402,0.03999999910593033,0.0,0.0,0.0,0.03999999910593033,0.0,0.0,0.0,0.03999999910593033
1779481147.0269055,48811,1779481147,33583166,imu_link,0.01451709121465683,-0.00020938593661412597,0.9869072437286377,0.16060703992843628,0.0024999999441206455,0.0,0.0,0.0,0.0024999999441206455,0.0,0.0,0.0,0.0024999999441206455,0.0,0.0,0.0,0.019999999552965164,0.0,0.0,0.0,0.019999999552965164,0.0,0.0,0.0,0.019999999552965164,0.2777273952960968,0.03531447425484657,9.618704795837402,0.03999999910593033,0.0,0.0,0.0,0.03999999910593033,0.0,0.0,0.0,0.03999999910593033
1779481147.0328155,48812,1779481147,38583166,imu_link,0.015069598332047462,-0.0007094857282936573,0.9869002103805542,0.16059865057468414,0.0024999999441206455,0.0,0.0,0.0,0.0024999999441206455,0.0,0.0,0.0,0.0024999999441206455,0.0,0.0,0.0,0.019999999552965164,0.0,0.0,0.0,0.019999999552965164,0.0,0.0,0.0,0.019999999552965164,0.2819172441959381,0.03770867735147476,9.636063575744629,0.03999999910593033,0.0,0.0,0.0,0.03999999910593033,0.0,0.0,0.0,0.03999999910593033
1779481147.0545297,48813,1779481147,47583166,imu_link,0.014871904626488686,-0.0018615053268149495,0.9869043827056885,0.16058160364627838,0.0024999999441206455,0.0,0.0,0.0,0.0024999999441206455,0.0,0.0,0.0,0.0024999999441206455,0.0,0.0,0.0,0.019999999552965164,0.0,0.0,0.0,0.019999999552965164,0.0,0.0,0.0,0.019999999552965164,0.2885012924671173,0.014963760040700436,9.626486778259277,0.03999999910593033,0.0,0.0,0.0,0.03999999910593033,0.0,0.0,0.0,0.03999999910593033
1779481147.075948,48814,1779481147,88583166,imu_link,0.011395794339478016,-0.0008739656186662614,0.9869494438171387,0.16059724986553192,0.0024999999441206455,0.0,0.0,0.0,0.0024999999441206455,0.0,0.0,0.0,0.0024999999441206455,0.0,0.0,0.0,0.019999999552965164,0.0,0.0,0.0,0.019999999552965164,0.0,0.0,0.0,0.019999999552965164,0.2669534981250763,0.013168109580874443,9.639654159545898,0.03999999910593033,0.0,0.0,0.0,0.03999999910593033,0.0,0.0,0.0,0.03999999910593033
1779481147.0818708,48815,1779481147,90583166,imu_link,0.012079845182597637,-0.0008783977245911956,0.9869415163993835,0.16059650480747223,0.0024999999441206455,0.0,0.0,0.0,0.0024999999441206455,0.0,0.0,0.0,0.0024999999441206455,0.0,0.0,0.0,0.019999999552965164,0.0,0.0,0.0,0.019999999552965164,0.0,0.0,0.0,0.019999999552965164,0.28371289372444153,0.028730420395731926,9.598953247070312,0.03999999910593033,0.0,0.0,0.0,0.03999999910593033,0.0,0.0,0.0,0.03999999910593033
1779481147.0876513,48816,1779481147,95583166,imu_link,0.012079845182597637,-0.0008783977245911956,0.9869415163993835,0.16059650480747223,0.0024999999441206455,0.0,0.0,0.0,0.0024999999441206455,0.0,0.0,0.0,0.0024999999441206455,0.0,0.0,0.0,0.019999999552965164,0.0,0.0,0.0,0.019999999552965164,0.0,0.0,0.0,0.019999999552965164,0.28371289372444153,0.028730420395731926,9.598953247070312,0.03999999910593033,0.0,0.0,0.0,0.03999999910593033,0.0,0.0,0.0,0.03999999910593033
1779481147.0934446,48817,1779481147,100583166,imu_link,0.012795235961675644,-0.0010860563488677144,0.9869328737258911,0.1605931967496872,0.0024999999441206455,0.0,0.0,0.0,0.0024999999441206455,0.0,0.0,0.0,0.0024999999441206455,0.0,0.0,0.0,0.019999999552965164,0.0,0.0,0.0,0.019999999552965164,0.0,0.0,0.0,0.019999999552965164,0.2998737692832947,0.012569558806717396,9.651625633239746,0.03999999910593033,0.0,0.0,0.0,0.03999999910593033,0.0,0.0,0.0,0.03999999910593033
1779481147.0992332,48818,1779481147,105583166,imu_link,0.013505847193300724,-0.0012917573330923915,0.9869236946105957,0.1605898141860962,0.0024999999441206455,0.0,0.0,0.0,0.0024999999441206455,0.0,0.0,0.0,0.0024999999441206455,0.0,0.0,0.0,0.019999999552965164,0.0,0.0,0.0,0.019999999552965164,0.0,0.0,0.0,0.019999999552965164,0.3106476664543152,0.011372458189725876,9.664793968200684,0.03999999910593033,0.0,0.0,0.0,0.03999999910593033,0.0,0.0,0.0,0.03999999910593033
1779481147.1046848,48819,1779481147,110583166,imu_link,0.013505847193300724,-0.0012917573330923915,0.9869236946105957,0.1605898141860962,0.0024999999441206455,0.0,0.0,0.0,0.0024999999441206455,0.0,0.0,0.0,0.0024999999441206455,0.0,0.0,0.0,0.019999999552965164,0.0,0.0,0.0,0.019999999552965164,0.0,0.0,0.0,0.019999999552965164,0.3106476664543152,0.011372458189725876,9.664793968200684,0.03999999910593033,0.0,0.0,0.0,0.03999999910593033,0.0,0.0,0.0,0.03999999910593033
1779481147.1107786,48820,1779481147,115583166,imu_link,0.01423676311969757,-0.001144709880463779,0.9869133830070496,0.16059111058712006,0.0024999999441206455,0.0,0.0,0.0,0.0024999999441206455,0.0,0.0,0.0,0.0024999999441206455,0.0,0.0,0.0,0.019999999552965164,0.0,0.0,0.0,0.019999999552965164,0.0,0.0,0.0,0.019999999552965164,0.2735375463962555,0.02214636467397213,9.613916397094727,0.03999999910593033,0.0,0.0,0.0,0.03999999910593033,0.0,0.0,0.0,0.03999999910593033
1779481147.1331272,48821,1779481147,124583166,imu_link,0.015036389231681824,-0.001996596110984683,0.9869022369384766,0.1605779230594635,0.0024999999441206455,0.0,0.0,0.0,0.0024999999441206455,0.0,0.0,0.0,0.0024999999441206455,0.0,0.0,0.0,0.019999999552965164,0.0,0.0,0.0,0.019999999552965164,0.0,0.0,0.0,0.019999999552965164,0.295683890581131,0.0065840547904372215,9.661800384521484,0.03999999910593033,0.0,0.0,0.0,0.03999999910593033,0.0,0.0,0.0,0.03999999910593033
1779481147.1542494,48822,1779481147,171583166,imu_link,0.014522318728268147,0.00218230951577425,0.9868994951248169,0.16064010560512543,0.0024999999441206455,0.0,0.0,0.0,0.0024999999441206455,0.0,0.0,0.0,0.0024999999441206455,0.0,0.0,0.0,0.019999999552965164,0.0,0.0,0.0,0.019999999552965164,0.0,0.0,0.0,0.019999999552965164,0.28311434388160706,0.03711012750864029,9.607931137084961,0.03999999910593033,0.0,0.0,0.0,0.03999999910593033,0.0,0.0,0.0,0.03999999910593033
1779481147.1597846,48823,1779481147,173583166,imu_link,0.014672069810330868,0.0015137556474655867,0.9869000911712646,0.1606300324201584,0.0024999999441206455,0.0,0.0,0.0,0.0024999999441206455,0.0,0.0,0.0,0.0024999999441206455,0.0,0.0,0.0,0.019999999552965164,0.0,0.0,0.0,0.019999999552965164,0.0,0.0,0.0,0.019999999552965164,0.29807811975479126,0.016759412363171577,9.652223587036133,0.03999999910593033,0.0,0.0,0.0,0.03999999910593033,0.0,0.0,0.0,0.03999999910593033
1779481147.1653059,48824,1779481147,178583166,imu_link,0.014672069810330868,0.0015137556474655867,0.9869000911712646,0.1606300324201584,0.0024999999441206455,0.0,0.0,0.0,0.0024999999441206455,0.0,0.0,0.0,0.0024999999441206455,0.0,0.0,0.0,0.019999999552965164,0.0,0.0,0.0,0.019999999552965164,0.0,0.0,0.0,0.019999999552965164,0.29807811975479126,0.016759412363171577,9.652223587036133,0.03999999910593033,0.0,0.0,0.0,0.03999999910593033,0.0,0.0,0.0,0.03999999910593033
1779481147.1730728,48825,1779481147,183583166,imu_link,0.014689099974930286,0.000769035133998841,0.9869025349617004,0.1606193333864212,0.0024999999441206455,0.0,0.0,0.0,0.0024999999441206455,0.0,0.0,0.0,0.0024999999441206455,0.0,0.0,0.0,0.019999999552965164,0.0,0.0,0.0,0.019999999552965164,0.0,0.0,0.0,0.019999999552965164,0.28550854325294495,0.016160860657691956,9.642646789550781,0.03999999910593033,0.0,0.0,0.0,0.03999999910593033,0.0,0.0,0.0,0.03999999910593033
1779481147.178329,48826,1779481147,188583166,imu_link,0.014884685166180134,5.4936659580562264e-05,0.986901581287384,0.16060839593410492,0.0024999999441206455,0.0,0.0,0.0,0.0024999999441206455,0.0,0.0,0.0,0.0024999999441206455,0.0,0.0,0.0,0.019999999552965164,0.0,0.0,0.0,0.019999999552965164,0.0,0.0,0.0,0.019999999552965164,0.2914940416812897,0.031124621629714966,9.671377182006836,0.03999999910593033,0.0,0.0,0.0,0.03999999910593033,0.0,0.0,0.0,0.03999999910593033
1779481147.1834407,48827,1779481147,193583166,imu_link,0.014884685166180134,5.4936659580562264e-05,0.986901581287384,0.16060839593410492,0.0024999999441206455,0.0,0.0,0.0,0.0024999999441206455,0.0,0.0,0.0,0.0024999999441206455,0.0,0.0,0.0,0.019999999552965164,0.0,0.0,0.0,0.019999999552965164,0.0,0.0,0.0,0.019999999552965164,0.2914940416812897,0.031124621629714966,9.671377182006836,0.03999999910593033,0.0,0.0,0.0,0.03999999910593033,0.0,0.0,0.0,0.03999999910593033
1779481147.1889026,48828,1779481147,198583166,imu_link,0.01497420109808445,-0.0006849780911579728,0.9869018793106079,0.1605972796678543,0.0024999999441206455,0.0,0.0,0.0,0.0024999999441206455,0.0,0.0,0.0,0.0024999999441206455,0.0,0.0,0.0,0.019999999552965164,0.0,0.0,0.0,0.019999999552965164,0.0,0.0,0.0,0.019999999552965164,0.29807811975479126,-0.005386953707784414,9.630077362060547,0.03999999910593033,0.0,0.0,0.0,0.03999999910593033,0.0,0.0,0.0,0.03999999910593033
1779481147.2116015,48829,1779481147,207583166,imu_link,0.013839113526046276,-0.0009671492734923959,0.986918568611145,0.16059494018554688,0.0024999999441206455,0.0,0.0,0.0,0.0024999999441206455,0.0,0.0,0.0,0.0024999999441206455,0.0,0.0,0.0,0.019999999552965164,0.0,0.0,0.0,0.019999999552965164,0.0,0.0,0.0,0.019999999552965164,0.2795230448246002,0.02992752008140087,9.655217170715332,0.03999999910593033,0.0,0.0,0.0,0.03999999910593033,0.0,0.0,0.0,0.03999999910593033
1779481147.2173293,48830,1779481147,212583166,imu_link,0.013839113526046276,-0.0009671492734923959,0.986918568611145,0.16059494018554688,0.0024999999441206455,0.0,0.0,0.0,0.0024999999441206455,0.0,0.0,0.0,0.0024999999441206455,0.0,0.0,0.0,0.019999999552965164,0.0,0.0,0.0,0.019999999552965164,0.0,0.0,0.0,0.019999999552965164,0.2795230448246002,0.02992752008140087,9.655217170715332,0.03999999910593033,0.0,0.0,0.0,0.03999999910593033,0.0,0.0,0.0,0.03999999910593033
1779481147.2235482,48831,1779481147,217583166,imu_link,0.014577219262719154,-0.0008718494791537523,0.986907958984375,0.16059528291225433,0.0024999999441206455,0.0,0.0,0.0,0.0024999999441206455,0.0,0.0,0.0,0.0024999999441206455,0.0,0.0,0.0,0.019999999552965164,0.0,0.0,0.0,0.019999999552965164,0.0,0.0,0.0,0.019999999552965164,0.2914940416812897,0.03232172131538391,9.570820808410645,0.03999999910593033,0.0,0.0,0.0,0.03999999910593033,0.0,0.0,0.0,0.03999999910593033
1779481147.2292511,48832,1779481147,222583166,imu_link,0.013959921896457672,-0.0004633920907508582,0.9869161248207092,0.16060209274291992,0.0024999999441206455,0.0,0.0,0.0,0.0024999999441206455,0.0,0.0,0.0,0.0024999999441206455,0.0,0.0,0.0,0.019999999552965164,0.0,0.0,0.0,0.019999999552965164,0.0,0.0,0.0,0.019999999552965164,0.27054479718208313,0.033518824726343155,9.678560256958008,0.03999999910593033,0.0,0.0,0.0,0.03999999910593033,0.0,0.0,0.0,0.03999999910593033
1779481147.234356,48833,1779481147,227583166,imu_link,0.013959921896457672,-0.0004633920907508582,0.9869161248207092,0.16060209274291992,0.0024999999441206455,0.0,0.0,0.0,0.0024999999441206455,0.0,0.0,0.0,0.0024999999441206455,0.0,0.0,0.0,0.019999999552965164,0.0,0.0,0.0,0.019999999552965164,0.0,0.0,0.0,0.019999999552965164,0.27054479718208313,0.033518824726343155,9.678560256958008,0.03999999910593033,0.0,0.0,0.0,0.03999999910593033,0.0,0.0,0.0,0.03999999910593033
1779481147.2562337,48834,1779481147,256968915,imu_link,0.016299713402986526,-0.004223320633172989,0.9868807196617126,0.1605442464351654,0.0024999999441206455,0.0,0.0,0.0,0.0024999999441206455,0.0,0.0,0.0,0.0024999999441206455,0.0,0.0,0.0,0.019999999552965164,0.0,0.0,0.0,0.019999999552965164,0.0,0.0,0.0,0.019999999552965164,0.284311443567276,0.014365210197865963,9.627683639526367,0.03999999910593033,0.0,0.0,0.0,0.03999999910593033,0.0,0.0,0.0,0.03999999910593033
1779481147.2618952,48835,1779481147,258968915,imu_link,0.015873726457357407,-0.0036866688169538975,0.9868884086608887,0.16055253148078918,0.0024999999441206455,0.0,0.0,0.0,0.0024999999441206455,0.0,0.0,0.0,0.0024999999441206455,0.0,0.0,0.0,0.019999999552965164,0.0,0.0,0.0,0.019999999552965164,0.0,0.0,0.0,0.019999999552965164,0.2759317457675934,0.013766659423708916,9.658209800720215,0.03999999910593033,0.0,0.0,0.0,0.03999999910593033,0.0,0.0,0.0,0.03999999910593033
1779481147.2674522,48836,1779481147,263968915,imu_link,0.015873726457357407,-0.0036866688169538975,0.9868884086608887,0.16055253148078918,0.0024999999441206455,0.0,0.0,0.0,0.0024999999441206455,0.0,0.0,0.0,0.0024999999441206455,0.0,0.0,0.0,0.019999999552965164,0.0,0.0,0.0,0.019999999552965164,0.0,0.0,0.0,0.019999999552965164,0.2759317457675934,0.013766659423708916,9.658209800720215,0.03999999910593033,0.0,0.0,0.0,0.03999999910593033,0.0,0.0,0.0,0.03999999910593033
1779481147.273018,48837,1779481147,268968915,imu_link,0.01557956449687481,-0.003002011217176914,0.9868936538696289,0.16056330502033234,0.0024999999441206455,0.0,0.0,0.0,0.0024999999441206455,0.0,0.0,0.0,0.0024999999441206455,0.0,0.0,0.0,0.019999999552965164,0.0,0.0,0.0,0.019999999552965164,0.0,0.0,0.0,0.019999999552965164,0.27653029561042786,0.03651157394051552,9.626486778259277,0.03999999910593033,0.0,0.0,0.0,0.03999999910593033,0.0,0.0,0.0,0.03999999910593033
1779481147.2783134,48838,1779481147,273968915,imu_link,0.015980133786797523,-0.0023789156693965197,0.9868872761726379,0.1605733186006546,0.0024999999441206455,0.0,0.0,0.0,0.0024999999441206455,0.0,0.0,0.0,0.0024999999441206455,0.0,0.0,0.0,0.019999999552965164,0.0,0.0,0.0,0.019999999552965164,0.0,0.0,0.0,0.019999999552965164,0.31603461503982544,0.011372458189725876,9.68155288696289,0.03999999910593033,0.0,0.0,0.0,0.03999999910593033,0.0,0.0,0.0,0.03999999910593033
1779481147.2842946,48839,1779481147,278968915,imu_link,0.015980133786797523,-0.0023789156693965197,0.9868872761726379,0.1605733186006546,0.0024999999441206455,0.0,0.0,0.0,0.0024999999441206455,0.0,0.0,0.0,0.0024999999441206455,0.0,0.0,0.0,0.019999999552965164,0.0,0.0,0.0,0.019999999552965164,0.0,0.0,0.0,0.019999999552965164,0.31603461503982544,0.011372458189725876,9.68155288696289,0.03999999910593033,0.0,0.0,0.0,0.03999999910593033,0.0,0.0,0.0,0.03999999910593033
1779481147.2898984,48840,1779481147,283968915,imu_link,0.015285207889974117,-0.0021107972133904696,0.9868981242179871,0.16057774424552917,0.0024999999441206455,0.0,0.0,0.0,0.0024999999441206455,0.0,0.0,0.0,0.0024999999441206455,0.0,0.0,0.0,0.019999999552965164,0.0,0.0,0.0,0.019999999552965164,0.0,0.0,0.0,0.019999999552965164,0.29209259152412415,0.008379706181585789,9.651026725769043,0.03999999910593033,0.0,0.0,0.0,0.03999999910593033,0.0,0.0,0.0,0.03999999910593033
1779481147.3121097,48841,1779481147,292968915,imu_link,0.014280837029218674,-0.002708680462092161,0.9869132041931152,0.16056878864765167,0.0024999999441206455,0.0,0.0,0.0,0.0024999999441206455,0.0,0.0,0.0,0.0024999999441206455,0.0,0.0,0.0,0.019999999552965164,0.0,0.0,0.0,0.019999999552965164,0.0,0.0,0.0,0.019999999552965164,0.28311434388160706,-0.004788403399288654,9.634865760803223,0.03999999910593033,0.0,0.0,0.0,0.03999999910593033,0.0,0.0,0.0,0.03999999910593033
1779481147.3184133,48842,1779481147,297968915,imu_link,0.014280837029218674,-0.002708680462092161,0.9869132041931152,0.16056878864765167,0.0024999999441206455,0.0,0.0,0.0,0.0024999999441206455,0.0,0.0,0.0,0.0024999999441206455,0.0,0.0,0.0,0.019999999552965164,0.0,0.0,0.0,0.019999999552965164,0.0,0.0,0.0,0.019999999552965164,0.28311434388160706,-0.004788403399288654,9.634865760803223,0.03999999910593033,0.0,0.0,0.0,0.03999999910593033,0.0,0.0,0.0,0.03999999910593033
1779481147.325001,48843,1779481147,302968915,imu_link,0.014504728838801384,-0.0019976883195340633,0.9869099855422974,0.1605791598558426,0.0024999999441206455,0.0,0.0,0.0,0.0024999999441206455,0.0,0.0,0.0,0.0024999999441206455,0.0,0.0,0.0,0.019999999552965164,0.0,0.0,0.0,0.019999999552965164,0.0,0.0,0.0,0.019999999552965164,0.2825157940387726,0.010773907415568829,9.628281593322754,0.03999999910593033,0.0,0.0,0.0,0.03999999910593033,0.0,0.0,0.0,0.03999999910593033
1779481147.330805,48844,1779481147,307968915,imu_link,0.015050995163619518,-0.0014983799774199724,0.986901581287384,0.16058623790740967,0.0024999999441206455,0.0,0.0,0.0,0.0024999999441206455,0.0,0.0,0.0,0.0024999999441206455,0.0,0.0,0.0,0.019999999552965164,0.0,0.0,0.0,0.019999999552965164,0.0,0.0,0.0,0.019999999552965164,0.3064578175544739,0.03711012750864029,9.64923095703125,0.03999999910593033,0.0,0.0,0.0,0.03999999910593033,0.0,0.0,0.0,0.03999999910593033
1779481147.3366804,48845,1779481147,312968915,imu_link,0.015050995163619518,-0.0014983799774199724,0.986901581287384,0.16058623790740967,0.0024999999441206455,0.0,0.0,0.0,0.0024999999441206455,0.0,0.0,0.0,0.0024999999441206455,0.0,0.0,0.0,0.019999999552965164,0.0,0.0,0.0,0.019999999552965164,0.0,0.0,0.0,0.019999999552965164,0.3064578175544739,0.03711012750864029,9.64923095703125,0.03999999910593033,0.0,0.0,0.0,0.03999999910593033,0.0,0.0,0.0,0.03999999910593033
1779481147.3577933,48846,1779481147,355968915,imu_link,0.016222257167100906,0.002667676191776991,0.9868707656860352,0.16064654290676117,0.0024999999441206455,0.0,0.0,0.0,0.0024999999441206455,0.0,0.0,0.0,0.0024999999441206455,0.0,0.0,0.0,0.019999999552965164,0.0,0.0,0.0,0.019999999552965164,0.0,0.0,0.0,0.019999999552965164,0.2914940416812897,0.030526071786880493,9.604339599609375,0.03999999910593033,0.0,0.0,0.0,0.03999999910593033,0.0,0.0,0.0,0.03999999910593033
1779481147.3634284,48847,1779481147,357968915,imu_link,0.015994302928447723,0.0020224268082529306,0.9868773818016052,0.16063761711120605,0.0024999999441206455,0.0,0.0,0.0,0.0024999999441206455,0.0,0.0,0.0,0.0024999999441206455,0.0,0.0,0.0,0.019999999552965164,0.0,0.0,0.0,0.019999999552965164,0.0,0.0,0.0,0.019999999552965164,0.28730419278144836,0.031124621629714966,9.618106842041016,0.03999999910593033,0.0,0.0,0.0,0.03999999910593033,0.0,0.0,0.0,0.03999999910593033
1779481147.3692787,48848,1779481147,362968915,imu_link,0.015994302928447723,0.0020224268082529306,0.9868773818016052,0.16063761711120605,0.0024999999441206455,0.0,0.0,0.0,0.0024999999441206455,0.0,0.0,0.0,0.0024999999441206455,0.0,0.0,0.0,0.019999999552965164,0.0,0.0,0.0,0.019999999552965164,0.0,0.0,0.0,0.019999999552965164,0.28730419278144836,0.031124621629714966,9.618106842041016,0.03999999910593033,0.0,0.0,0.0,0.03999999910593033,0.0,0.0,0.0,0.03999999910593033
1779481147.3749306,48849,1779481147,367968915,imu_link,0.0159551203250885,0.001276463153772056,0.9868811964988708,0.16062623262405396,0.0024999999441206455,0.0,0.0,0.0,0.0024999999441206455,0.0,0.0,0.0,0.0024999999441206455,0.0,0.0,0.0,0.019999999552965164,0.0,0.0,0.0,0.019999999552965164,0.0,0.0,0.0,0.019999999552965164,0.304063618183136,0.02513911761343479,9.607931137084961,0.03999999910593033,0.0,0.0,0.0,0.03999999910593033,0.0,0.0,0.0,0.03999999910593033
1779481147.380208,48850,1779481147,372968915,imu_link,0.015491022728383541,0.0006997752352617681,0.9868902564048767,0.16061899065971375,0.0024999999441206455,0.0,0.0,0.0,0.0024999999441206455,0.0,0.0,0.0,0.0024999999441206455,0.0,0.0,0.0,0.019999999552965164,0.0,0.0,0.0,0.019999999552965164,0.0,0.0,0.0,0.019999999552965164,0.27892449498176575,0.03531447425484657,9.676165580749512,0.03999999910593033,0.0,0.0,0.0,0.03999999910593033,0.0,0.0,0.0,0.03999999910593033
1779481147.3857381,48851,1779481147,377968915,imu_link,0.015491022728383541,0.0006997752352617681,0.9868902564048767,0.16061899065971375,0.0024999999441206455,0.0,0.0,0.0,0.0024999999441206455,0.0,0.0,0.0,0.0024999999441206455,0.0,0.0,0.0,0.019999999552965164,0.0,0.0,0.0,0.019999999552965164,0.0,0.0,0.0,0.019999999552965164,0.27892449498176575,0.03531447425484657,9.676165580749512,0.03999999910593033,0.0,0.0,0.0,0.03999999910593033,0.0,0.0,0.0,0.03999999910593033
1779481147.3922555,48852,1779481147,382968915,imu_link,0.015593642368912697,-3.853230009553954e-05,0.9868908524513245,0.16060741245746613,0.0024999999441206455,0.0,0.0,0.0,0.0024999999441206455,0.0,0.0,0.0,0.0024999999441206455,0.0,0.0,0.0,0.019999999552965164,0.0,0.0,0.0,0.019999999552965164,0.0,0.0,0.0,0.019999999552965164,0.3034650683403015,0.021547814831137657,9.592369079589844,0.03999999910593033,0.0,0.0,0.0,0.03999999910593033,0.0,0.0,0.0,0.03999999910593033
1779481147.414304,48853,1779481147,391968915,imu_link,0.01459519099444151,-0.0006466876366175711,0.9869070053100586,0.16060040891170502,0.0024999999441206455,0.0,0.0,0.0,0.0024999999441206455,0.0,0.0,0.0,0.0024999999441206455,0.0,0.0,0.0,0.019999999552965164,0.0,0.0,0.0,0.019999999552965164,0.0,0.0,0.0,0.019999999552965164,0.27473464608192444,0.028131868690252304,9.658807754516602,0.03999999910593033,0.0,0.0,0.0,0.03999999910593033,0.0,0.0,0.0,0.03999999910593033
1779481147.4195497,48854,1779481147,396968915,imu_link,0.01459519099444151,-0.0006466876366175711,0.9869070053100586,0.16060040891170502,0.0024999999441206455,0.0,0.0,0.0,0.0024999999441206455,0.0,0.0,0.0,0.0024999999441206455,0.0,0.0,0.0,0.019999999552965164,0.0,0.0,0.0,0.019999999552965164,0.0,0.0,0.0,0.019999999552965164,0.27473464608192444,0.028131868690252304,9.658807754516602,0.03999999910593033,0.0,0.0,0.0,0.03999999910593033,0.0,0.0,0.0,0.03999999910593033
1779481147.442125,48855,1779481147,440968915,imu_link,0.015232181176543236,-0.005013746675103903,0.9868956208229065,0.16053439676761627,0.0024999999441206455,0.0,0.0,0.0,0.0024999999441206455,0.0,0.0,0.0,0.0024999999441206455,0.0,0.0,0.0,0.019999999552965164,0.0,0.0,0.0,0.019999999552965164,0.0,0.0,0.0,0.019999999552965164,0.2890998423099518,0.002992752008140087,9.633668899536133,0.03999999910593033,0.0,0.0,0.0,0.03999999910593033,0.0,0.0,0.0,0.03999999910593033
1779481147.4478025,48856,1779481147,442968915,imu_link,0.01507555227726698,-0.004348511341959238,0.9868995547294617,0.1605445146560669,0.0024999999441206455,0.0,0.0,0.0,0.0024999999441206455,0.0,0.0,0.0,0.0024999999441206455,0.0,0.0,0.0,0.019999999552965164,0.0,0.0,0.0,0.019999999552965164,0.0,0.0,0.0,0.019999999552965164,0.2759317457675934,0.023942016065120697,9.651625633239746,0.03999999910593033,0.0,0.0,0.0,0.03999999910593033,0.0,0.0,0.0,0.03999999910593033
1779481147.4532611,48857,1779481147,447968915,imu_link,0.01507555227726698,-0.004348511341959238,0.9868995547294617,0.1605445146560669,0.0024999999441206455,0.0,0.0,0.0,0.0024999999441206455,0.0,0.0,0.0,0.0024999999441206455,0.0,0.0,0.0,0.019999999552965164,0.0,0.0,0.0,0.019999999552965164,0.0,0.0,0.0,0.019999999552965164,0.2759317457675934,0.023942016065120697,9.651625633239746,0.03999999910593033,0.0,0.0,0.0,0.03999999910593033,0.0,0.0,0.0,0.03999999910593033
1779481147.4583938,48858,1779481147,452968915,imu_link,0.014983289875090122,-0.003608682891353965,0.9869019985198975,0.16055580973625183,0.0024999999441206455,0.0,0.0,0.0,0.0024999999441206455,0.0,0.0,0.0,0.0024999999441206455,0.0,0.0,0.0,0.019999999552965164,0.0,0.0,0.0,0.019999999552965164,0.0,0.0,0.0,0.019999999552965164,0.28371289372444153,0.01735796220600605,9.604938507080078,0.03999999910593033,0.0,0.0,0.0,0.03999999910593033,0.0,0.0,0.0,0.03999999910593033
1779481147.4645264,48859,1779481147,457968915,imu_link,0.014891298487782478,-0.0028743490111082792,0.986903965473175,0.16056692600250244,0.0024999999441206455,0.0,0.0,0.0,0.0024999999441206455,0.0,0.0,0.0,0.0024999999441206455,0.0,0.0,0.0,0.019999999552965164,0.0,0.0,0.0,0.019999999552965164,0.0,0.0,0.0,0.019999999552965164,0.2890998423099518,0.005386953707784414,9.667786598205566,0.03999999910593033,0.0,0.0,0.0,0.03999999910593033,0.0,0.0,0.0,0.03999999910593033
1779481147.4708083,48860,1779481147,462968915,imu_link,0.014891298487782478,-0.0028743490111082792,0.986903965473175,0.16056692600250244,0.0024999999441206455,0.0,0.0,0.0,0.0024999999441206455,0.0,0.0,0.0,0.0024999999441206455,0.0,0.0,0.0,0.019999999552965164,0.0,0.0,0.0,0.019999999552965164,0.0,0.0,0.0,0.019999999552965164,0.2890998423099518,0.005386953707784414,9.667786598205566,0.03999999910593033,0.0,0.0,0.0,0.03999999910593033,0.0,0.0,0.0,0.03999999910593033
1779481147.4765165,48861,1779481147,467968915,imu_link,0.014949497766792774,-0.0021313130855560303,0.9869032502174377,0.160578191280365,0.0024999999441206455,0.0,0.0,0.0,0.0024999999441206455,0.0,0.0,0.0,0.0024999999441206455,0.0,0.0,0.0,0.019999999552965164,0.0,0.0,0.0,0.019999999552965164,0.0,0.0,0.0,0.019999999552965164,0.2902969419956207,0.02513911761343479,9.66419506072998,0.03999999910593033,0.0,0.0,0.0,0.03999999910593033,0.0,0.0,0.0,0.03999999910593033
1779481147.4994092,48862,1779481147,476968915,imu_link,0.015349259600043297,-0.0010307375341653824,0.9868962168693542,0.16059458255767822,0.0024999999441206455,0.0,0.0,0.0,0.0024999999441206455,0.0,0.0,0.0,0.0024999999441206455,0.0,0.0,0.0,0.019999999552965164,0.0,0.0,0.0,0.019999999552965164,0.0,0.0,0.0,0.019999999552965164,0.2926911413669586,0.011372458189725876,9.654618263244629,0.03999999910593033,0.0,0.0,0.0,0.03999999910593033,0.0,0.0,0.0,0.03999999910593033
1779481147.5208704,48863,1779481147,513968915,imu_link,0.012741715647280216,-0.002909541828557849,0.9869337677955627,0.16056875884532928,0.0024999999441206455,0.0,0.0,0.0,0.0024999999441206455,0.0,0.0,0.0,0.0024999999441206455,0.0,0.0,0.0,0.019999999552965164,0.0,0.0,0.0,0.019999999552965164,0.0,0.0,0.0,0.019999999552965164,0.2819172441959381,0.013766659423708916,9.664793968200684,0.03999999910593033,0.0,0.0,0.0,0.03999999910593033,0.0,0.0,0.0,0.03999999910593033
1779481147.526597,48864,1779481147,515968915,imu_link,0.01326709520071745,-0.0024700781796127558,0.9869270324707031,0.16057489812374115,0.0024999999441206455,0.0,0.0,0.0,0.0024999999441206455,0.0,0.0,0.0,0.0024999999441206455,0.0,0.0,0.0,0.019999999552965164,0.0,0.0,0.0,0.019999999552965164,0.0,0.0,0.0,0.019999999552965164,0.30226796865463257,0.043095629662275314,9.628281593322754,0.03999999910593033,0.0,0.0,0.0,0.03999999910593033,0.0,0.0,0.0,0.03999999910593033
1779481147.5349503,48865,1779481147,520968915,imu_link,0.01326709520071745,-0.0024700781796127558,0.9869270324707031,0.16057489812374115,0.0024999999441206455,0.0,0.0,0.0,0.0024999999441206455,0.0,0.0,0.0,0.0024999999441206455,0.0,0.0,0.0,0.019999999552965164,0.0,0.0,0.0,0.019999999552965164,0.0,0.0,0.0,0.019999999552965164,0.30226796865463257,0.043095629662275314,9.628281593322754,0.03999999910593033,0.0,0.0,0.0,0.03999999910593033,0.0,0.0,0.0,0.03999999910593033
1779481147.5408502,48866,1779481147,525968915,imu_link,0.013637249357998371,-0.0018230844289064407,0.9869219660758972,0.16058368980884552,0.0024999999441206455,0.0,0.0,0.0,0.0024999999441206455,0.0,0.0,0.0,0.0024999999441206455,0.0,0.0,0.0,0.019999999552965164,0.0,0.0,0.0,0.019999999552965164,0.0,0.0,0.0,0.019999999552965164,0.2687491476535797,0.018555063754320145,9.617507934570312,0.03999999910593033,0.0,0.0,0.0,0.03999999910593033,0.0,0.0,0.0,0.03999999910593033
1779481147.5463684,48867,1779481147,530968915,imu_link,0.014341387897729874,-0.0015939467120915651,0.986911952495575,0.16058653593063354,0.0024999999441206455,0.0,0.0,0.0,0.0024999999441206455,0.0,0.0,0.0,0.0024999999441206455,0.0,0.0,0.0,0.019999999552965164,0.0,0.0,0.0,0.019999999552965164,0.0,0.0,0.0,0.019999999552965164,0.2908954918384552,0.021547814831137657,9.5809965133667,0.03999999910593033,0.0,0.0,0.0,0.03999999910593033,0.0,0.0,0.0,0.03999999910593033
1779481147.5526495,48868,1779481147,535968915,imu_link,0.014341387897729874,-0.0015939467120915651,0.986911952495575,0.16058653593063354,0.0024999999441206455,0.0,0.0,0.0,0.0024999999441206455,0.0,0.0,0.0,0.0024999999441206455,0.0,0.0,0.0,0.019999999552965164,0.0,0.0,0.0,0.019999999552965164,0.0,0.0,0.0,0.019999999552965164,0.2908954918384552,0.021547814831137657,9.5809965133667,0.03999999910593033,0.0,0.0,0.0,0.03999999910593033,0.0,0.0,0.0,0.03999999910593033
1779481147.5582368,48869,1779481147,540968915,imu_link,0.015080764889717102,-0.0016802194295451045,0.9869011640548706,0.1605847179889679,0.0024999999441206455,0.0,0.0,0.0,0.0024999999441206455,0.0,0.0,0.0,0.0024999999441206455,0.0,0.0,0.0,0.019999999552965164,0.0,0.0,0.0,0.019999999552965164,0.0,0.0,0.0,0.019999999552965164,0.2974795699119568,0.014963760040700436,9.64923095703125,0.03999999910593033,0.0,0.0,0.0,0.03999999910593033,0.0,0.0,0.0,0.03999999910593033
1779481147.5805225,48870,1779481147,549968915,imu_link,0.014192808419466019,-0.0024426153395324945,0.9869143962860107,0.16057370603084564,0.0024999999441206455,0.0,0.0,0.0,0.0024999999441206455,0.0,0.0,0.0,0.0024999999441206455,0.0,0.0,0.0,0.019999999552965164,0.0,0.0,0.0,0.019999999552965164,0.0,0.0,0.0,0.019999999552965164,0.2861070930957794,0.005985504016280174,9.680953979492188,0.03999999910593033,0.0,0.0,0.0,0.03999999910593033,0.0,0.0,0.0,0.03999999910593033
1779481147.6018572,48871,1779481147,601968915,imu_link,0.016863243654370308,0.001440072082914412,0.9868655800819397,0.16062821447849274,0.0024999999441206455,0.0,0.0,0.0,0.0024999999441206455,0.0,0.0,0.0,0.0024999999441206455,0.0,0.0,0.0,0.019999999552965164,0.0,0.0,0.0,0.019999999552965164,0.0,0.0,0.0,0.019999999552965164,0.295683890581131,0.03232172131538391,9.691129684448242,0.03999999910593033,0.0,0.0,0.0,0.03999999910593033,0.0,0.0,0.0,0.03999999910593033
1779481147.6075876,48872,1779481147,603968915,imu_link,0.016512993723154068,0.0008521089912392199,0.9868733882904053,0.16061994433403015,0.0024999999441206455,0.0,0.0,0.0,0.0024999999441206455,0.0,0.0,0.0,0.0024999999441206455,0.0,0.0,0.0,0.019999999552965164,0.0,0.0,0.0,0.019999999552965164,0.0,0.0,0.0,0.019999999552965164,0.29448679089546204,0.020949264988303185,9.677363395690918,0.03999999910593033,0.0,0.0,0.0,0.03999999910593033,0.0,0.0,0.0,0.03999999910593033
1779481147.613471,48873,1779481147,608968915,imu_link,0.016512993723154068,0.0008521089912392199,0.9868733882904053,0.16061994433403015,0.0024999999441206455,0.0,0.0,0.0,0.0024999999441206455,0.0,0.0,0.0,0.0024999999441206455,0.0,0.0,0.0,0.019999999552965164,0.0,0.0,0.0,0.019999999552965164,0.0,0.0,0.0,0.019999999552965164,0.29448679089546204,0.020949264988303185,9.677363395690918,0.03999999910593033,0.0,0.0,0.0,0.03999999910593033,0.0,0.0,0.0,0.03999999910593033
1779481147.6195073,48874,1779481147,613968915,imu_link,0.016101695597171783,0.00023025472182780504,0.9868820309638977,0.16061128675937653,0.0024999999441206455,0.0,0.0,0.0,0.0024999999441206455,0.0,0.0,0.0,0.0024999999441206455,0.0,0.0,0.0,0.019999999552965164,0.0,0.0,0.0,0.019999999552965164,0.0,0.0,0.0,0.019999999552965164,0.2974795699119568,0.03711012750864029,9.619303703308105,0.03999999910593033,0.0,0.0,0.0,0.03999999910593033,0.0,0.0,0.0,0.03999999910593033
1779481147.625545,48875,1779481147,618968915,imu_link,0.015369575470685959,0.0003376323147676885,0.9868929386138916,0.1606149822473526,0.0024999999441206455,0.0,0.0,0.0,0.0024999999441206455,0.0,0.0,0.0,0.0024999999441206455,0.0,0.0,0.0,0.019999999552965164,0.0,0.0,0.0,0.019999999552965164,0.0,0.0,0.0,0.019999999552965164,0.2908954918384552,0.05386953800916672,9.607931137084961,0.03999999910593033,0.0,0.0,0.0,0.03999999910593033,0.0,0.0,0.0,0.03999999910593033
1779481147.6310153,48876,1779481147,623968915,imu_link,0.015369575470685959,0.0003376323147676885,0.9868929386138916,0.1606149822473526,0.0024999999441206455,0.0,0.0,0.0,0.0024999999441206455,0.0,0.0,0.0,0.0024999999441206455,0.0,0.0,0.0,0.019999999552965164,0.0,0.0,0.0,0.019999999552965164,0.0,0.0,0.0,0.019999999552965164,0.2908954918384552,0.05386953800916672,9.607931137084961,0.03999999910593033,0.0,0.0,0.0,0.03999999910593033,0.0,0.0,0.0,0.03999999910593033
1779481147.6372,48877,1779481147,628968915,imu_link,0.014942396432161331,-0.00027236269670538604,0.9869009256362915,0.16060693562030792,0.0024999999441206455,0.0,0.0,0.0,0.0024999999441206455,0.0,0.0,0.0,0.0024999999441206455,0.0,0.0,0.0,0.019999999552965164,0.0,0.0,0.0,0.019999999552965164,0.0,0.0,0.0,0.019999999552965164,0.2819172441959381,0.03172317147254944,9.682151794433594,0.03999999910593033,0.0,0.0,0.0,0.03999999910593033,0.0,0.0,0.0,0.03999999910593033
1779481147.6585674,48878,1779481147,637968915,imu_link,0.014497879892587662,-0.0013555121840909123,0.986909031867981,0.160591721534729,0.0024999999441206455,0.0,0.0,0.0,0.0024999999441206455,0.0,0.0,0.0,0.0024999999441206455,0.0,0.0,0.0,0.019999999552965164,0.0,0.0,0.0,0.019999999552965164,0.0,0.0,0.0,0.019999999552965164,0.2795230448246002,0.013168109580874443,9.66539192199707,0.03999999910593033,0.0,0.0,0.0,0.03999999910593033,0.0,0.0,0.0,0.03999999910593033
1779481147.6646733,48879,1779481147,642968915,imu_link,0.014497879892587662,-0.0013555121840909123,0.986909031867981,0.160591721534729,0.0024999999441206455,0.0,0.0,0.0,0.0024999999441206455,0.0,0.0,0.0,0.0024999999441206455,0.0,0.0,0.0,0.019999999552965164,0.0,0.0,0.0,0.019999999552965164,0.0,0.0,0.0,0.019999999552965164,0.2795230448246002,0.013168109580874443,9.66539192199707,0.03999999910593033,0.0,0.0,0.0,0.03999999910593033,0.0,0.0,0.0,0.03999999910593033
1779481147.6856885,48880,1779481147,683968915,imu_link,0.016210319474339485,0.002382991136983037,0.9868722558021545,0.16064301133155823,0.0024999999441206455,0.0,0.0,0.0,0.0024999999441206455,0.0,0.0,0.0,0.0024999999441206455,0.0,0.0,0.0,0.019999999552965164,0.0,0.0,0.0,0.019999999552965164,0.0,0.0,0.0,0.019999999552965164,0.28311434388160706,0.0293289702385664,9.644442558288574,0.03999999910593033,0.0,0.0,0.0,0.03999999910593033,0.0,0.0,0.0,0.03999999910593033
1779481147.6913245,48881,1779481147,685968915,imu_link,0.01603103242814541,0.00172222510445863,0.986877977848053,0.16063351929187775,0.0024999999441206455,0.0,0.0,0.0,0.0024999999441206455,0.0,0.0,0.0,0.0024999999441206455,0.0,0.0,0.0,0.019999999552965164,0.0,0.0,0.0,0.019999999552965164,0.0,0.0,0.0,0.019999999552965164,0.2926911413669586,0.0293289702385664,9.586383819580078,0.03999999910593033,0.0,0.0,0.0,0.03999999910593033,0.0,0.0,0.0,0.03999999910593033
1779481147.6971996,48882,1779481147,690968915,imu_link,0.01603103242814541,0.00172222510445863,0.986877977848053,0.16063351929187775,0.0024999999441206455,0.0,0.0,0.0,0.0024999999441206455,0.0,0.0,0.0,0.0024999999441206455,0.0,0.0,0.0,0.019999999552965164,0.0,0.0,0.0,0.019999999552965164,0.0,0.0,0.0,0.019999999552965164,0.2926911413669586,0.0293289702385664,9.586383819580078,0.03999999910593033,0.0,0.0,0.0,0.03999999910593033,0.0,0.0,0.0,0.03999999910593033
1779481147.7028546,48883,1779481147,695968915,imu_link,0.015909267589449883,0.0009871614165604115,0.9868828058242798,0.16062258183956146,0.0024999999441206455,0.0,0.0,0.0,0.0024999999441206455,0.0,0.0,0.0,0.0024999999441206455,0.0,0.0,0.0,0.019999999552965164,0.0,0.0,0.0,0.019999999552965164,0.0,0.0,0.0,0.019999999552965164,0.2992752194404602,0.012569558806717396,9.628281593322754,0.03999999910593033,0.0,0.0,0.0,0.03999999910593033,0.0,0.0,0.0,0.03999999910593033
1779481147.7089362,48884,1779481147,700968915,imu_link,0.01561774406582117,0.00030609118402935565,0.9868895411491394,0.16061298549175262,0.0024999999441206455,0.0,0.0,0.0,0.0024999999441206455,0.0,0.0,0.0,0.0024999999441206455,0.0,0.0,0.0,0.019999999552965164,0.0,0.0,0.0,0.019999999552965164,0.0,0.0,0.0,0.019999999552965164,0.27892449498176575,-0.015562310814857483,9.636063575744629,0.03999999910593033,0.0,0.0,0.0,0.03999999910593033,0.0,0.0,0.0,0.03999999910593033
1779481147.7140443,48885,1779481147,705968915,imu_link,0.01561774406582117,0.00030609118402935565,0.9868895411491394,0.16061298549175262,0.0024999999441206455,0.0,0.0,0.0,0.0024999999441206455,0.0,0.0,0.0,0.0024999999441206455,0.0,0.0,0.0,0.019999999552965164,0.0,0.0,0.0,0.019999999552965164,0.0,0.0,0.0,0.019999999552965164,0.27892449498176575,-0.015562310814857483,9.636063575744629,0.03999999910593033,0.0,0.0,0.0,0.03999999910593033,0.0,0.0,0.0,0.03999999910593033
1779481147.720412,48886,1779481147,710968915,imu_link,0.015021502040326595,-0.00014039786765351892,0.9868995547294617,0.1606077253818512,0.0024999999441206455,0.0,0.0,0.0,0.0024999999441206455,0.0,0.0,0.0,0.0024999999441206455,0.0,0.0,0.0,0.019999999552965164,0.0,0.0,0.0,0.019999999552965164,0.0,0.0,0.0,0.019999999552965164,0.26396071910858154,0.021547814831137657,9.603741645812988,0.03999999910593033,0.0,0.0,0.0,0.03999999910593033,0.0,0.0,0.0,0.03999999910593033
1779481147.742151,48887,1779481147,719968915,imu_link,0.015362267382442951,-0.0012580034090206027,0.9868963956832886,0.160590261220932,0.0024999999441206455,0.0,0.0,0.0,0.0024999999441206455,0.0,0.0,0.0,0.0024999999441206455,0.0,0.0,0.0,0.019999999552965164,0.0,0.0,0.0,0.019999999552965164,0.0,0.0,0.0,0.019999999552965164,0.29628247022628784,0.023343466222286224,9.633668899536133,0.03999999910593033,0.0,0.0,0.0,0.03999999910593033,0.0,0.0,0.0,0.03999999910593033
1779481147.7635598,48888,1779481147,760968915,imu_link,0.015772761777043343,0.002334043150767684,0.9868792295455933,0.16064390540122986,0.0024999999441206455,0.0,0.0,0.0,0.0024999999441206455,0.0,0.0,0.0,0.0024999999441206455,0.0,0.0,0.0,0.019999999552965164,0.0,0.0,0.0,0.019999999552965164,0.0,0.0,0.0,0.019999999552965164,0.29628247022628784,0.0347159244120121,9.655217170715332,0.03999999910593033,0.0,0.0,0.0,0.03999999910593033,0.0,0.0,0.0,0.03999999910593033
1779481147.7693083,48889,1779481147,762968915,imu_link,0.015769196674227715,0.0016506451647728682,0.9868823885917664,0.16063350439071655,0.0024999999441206455,0.0,0.0,0.0,0.0024999999441206455,0.0,0.0,0.0,0.0024999999441206455,0.0,0.0,0.0,0.019999999552965164,0.0,0.0,0.0,0.019999999552965164,0.0,0.0,0.0,0.019999999552965164,0.30466216802597046,0.016759412363171577,9.627084732055664,0.03999999910593033,0.0,0.0,0.0,0.03999999910593033,0.0,0.0,0.0,0.03999999910593033
1779481147.7744222,48890,1779481147,767968915,imu_link,0.015769196674227715,0.0016506451647728682,0.9868823885917664,0.16063350439071655,0.0024999999441206455,0.0,0.0,0.0,0.0024999999441206455,0.0,0.0,0.0,0.0024999999441206455,0.0,0.0,0.0,0.019999999552965164,0.0,0.0,0.0,0.019999999552965164,0.0,0.0,0.0,0.019999999552965164,0.30466216802597046,0.016759412363171577,9.627084732055664,0.03999999910593033,0.0,0.0,0.0,0.03999999910593033,0.0,0.0,0.0,0.03999999910593033
1779481147.7809439,48891,1779481147,772968915,imu_link,0.015477824956178665,0.0009645211976021528,0.9868894815444946,0.1606241762638092,0.0024999999441206455,0.0,0.0,0.0,0.0024999999441206455,0.0,0.0,0.0,0.0024999999441206455,0.0,0.0,0.0,0.019999999552965164,0.0,0.0,0.0,0.019999999552965164,0.0,0.0,0.0,0.019999999552965164,0.2795230448246002,0.011372458189725876,9.68694019317627,0.03999999910593033,0.0,0.0,0.0,0.03999999910593033,0.0,0.0,0.0,0.03999999910593033
1779481147.786832,48892,1779481147,777968915,imu_link,0.015475250780582428,0.00022431845718529075,0.9868918657302856,0.16061295568943024,0.0024999999441206455,0.0,0.0,0.0,0.0024999999441206455,0.0,0.0,0.0,0.0024999999441206455,0.0,0.0,0.0,0.019999999552965164,0.0,0.0,0.0,0.019999999552965164,0.0,0.0,0.0,0.019999999552965164,0.2998737692832947,0.0065840547904372215,9.598953247070312,0.03999999910593033,0.0,0.0,0.0,0.03999999910593033,0.0,0.0,0.0,0.03999999910593033
1779481147.7922409,48893,1779481147,782968915,imu_link,0.015475250780582428,0.00022431845718529075,0.9868918657302856,0.16061295568943024,0.0024999999441206455,0.0,0.0,0.0,0.0024999999441206455,0.0,0.0,0.0,0.0024999999441206455,0.0,0.0,0.0,0.019999999552965164,0.0,0.0,0.0,0.019999999552965164,0.0,0.0,0.0,0.019999999552965164,0.2998737692832947,0.0065840547904372215,9.598953247070312,0.03999999910593033,0.0,0.0,0.0,0.03999999910593033,0.0,0.0,0.0,0.03999999910593033
1779481147.7976115,48894,1779481147,787968915,imu_link,0.014973682351410389,-0.0003266275452915579,0.9869006276130676,0.16060586273670197,0.0024999999441206455,0.0,0.0,0.0,0.0024999999441206455,0.0,0.0,0.0,0.0024999999441206455,0.0,0.0,0.0,0.019999999552965164,0.0,0.0,0.0,0.019999999552965164,0.0,0.0,0.0,0.019999999552965164,0.2825157940387726,0.033518824726343155,9.66958236694336,0.03999999910593033,0.0,0.0,0.0,0.03999999910593033,0.0,0.0,0.0,0.03999999910593033
1779481147.8203857,48895,1779481147,796968915,imu_link,0.013994726352393627,-0.000964900478720665,0.9869158267974854,0.16059832274913788,0.0024999999441206455,0.0,0.0,0.0,0.0024999999441206455,0.0,0.0,0.0,0.0024999999441206455,0.0,0.0,0.0,0.019999999552965164,0.0,0.0,0.0,0.019999999552965164,0.0,0.0,0.0,0.019999999552965164,0.28131869435310364,0.0347159244120121,9.689932823181152,0.03999999910593033,0.0,0.0,0.0,0.03999999910593033,0.0,0.0,0.0,0.03999999910593033
1779481147.8258872,48896,1779481147,801968915,imu_link,0.013994726352393627,-0.000964900478720665,0.9869158267974854,0.16059832274913788,0.0024999999441206455,0.0,0.0,0.0,0.0024999999441206455,0.0,0.0,0.0,0.0024999999441206455,0.0,0.0,0.0,0.019999999552965164,0.0,0.0,0.0,0.019999999552965164,0.0,0.0,0.0,0.019999999552965164,0.28131869435310364,0.0347159244120121,9.689932823181152,0.03999999910593033,0.0,0.0,0.0,0.03999999910593033,0.0,0.0,0.0,0.03999999910593033
1779481147.8472748,48897,1779481147,843968915,imu_link,0.016204139217734337,0.0026244937907904387,0.9868715405464172,0.16064417362213135,0.0024999999441206455,0.0,0.0,0.0,0.0024999999441206455,0.0,0.0,0.0,0.0024999999441206455,0.0,0.0,0.0,0.019999999552965164,0.0,0.0,0.0,0.019999999552965164,0.0,0.0,0.0,0.019999999552965164,0.2759317457675934,0.03950432687997818,9.661202430725098,0.03999999910593033,0.0,0.0,0.0,0.03999999910593033,0.0,0.0,0.0,0.03999999910593033
1779481147.8529243,48898,1779481147,845968915,imu_link,0.015859384089708328,0.0020335346926003695,0.9868797659873962,0.16063673794269562,0.0024999999441206455,0.0,0.0,0.0,0.0024999999441206455,0.0,0.0,0.0,0.0024999999441206455,0.0,0.0,0.0,0.019999999552965164,0.0,0.0,0.0,0.019999999552965164,0.0,0.0,0.0,0.019999999552965164,0.2687491476535797,0.018555063754320145,9.63187313079834,0.03999999910593033,0.0,0.0,0.0,0.03999999910593033,0.0,0.0,0.0,0.03999999910593033
1779481147.8581913,48899,1779481147,850968915,imu_link,0.015859384089708328,0.0020335346926003695,0.9868797659873962,0.16063673794269562,0.0024999999441206455,0.0,0.0,0.0,0.0024999999441206455,0.0,0.0,0.0,0.0024999999441206455,0.0,0.0,0.0,0.019999999552965164,0.0,0.0,0.0,0.019999999552965164,0.0,0.0,0.0,0.019999999552965164,0.2687491476535797,0.018555063754320145,9.63187313079834,0.03999999910593033,0.0,0.0,0.0,0.03999999910593033,0.0,0.0,0.0,0.03999999910593033
1779481147.8641565,48900,1779481147,855968915,imu_link,0.015557322651147842,0.0013519556960090995,0.9868871569633484,0.16062761843204498,0.0024999999441206455,0.0,0.0,0.0,0.0024999999441206455,0.0,0.0,0.0,0.0024999999441206455,0.0,0.0,0.0,0.019999999552965164,0.0,0.0,0.0,0.019999999552965164,0.0,0.0,0.0,0.019999999552965164,0.2753331959247589,0.0077811554074287415,9.66419506072998,0.03999999910593033,0.0,0.0,0.0,0.03999999910593033,0.0,0.0,0.0,0.03999999910593033
1779481147.8697112,48901,1779481147,860968915,imu_link,0.01541381236165762,0.0006257134373299778,0.9868919253349304,0.1606171429157257,0.0024999999441206455,0.0,0.0,0.0,0.0024999999441206455,0.0,0.0,0.0,0.0024999999441206455,0.0,0.0,0.0,0.019999999552965164,0.0,0.0,0.0,0.019999999552965164,0.0,0.0,0.0,0.019999999552965164,0.28969839215278625,0.01735796220600605,9.628281593322754,0.03999999910593033,0.0,0.0,0.0,0.03999999910593033,0.0,0.0,0.0,0.03999999910593033
1779481147.875862,48902,1779481147,865968915,imu_link,0.01541381236165762,0.0006257134373299778,0.9868919253349304,0.1606171429157257,0.0024999999441206455,0.0,0.0,0.0,0.0024999999441206455,0.0,0.0,0.0,0.0024999999441206455,0.0,0.0,0.0,0.019999999552965164,0.0,0.0,0.0,0.019999999552965164,0.0,0.0,0.0,0.019999999552965164,0.28969839215278625,0.01735796220600605,9.628281593322754,0.03999999910593033,0.0,0.0,0.0,0.03999999910593033,0.0,0.0,0.0,0.03999999910593033
1779481147.8818939,48903,1779481147,870968915,imu_link,0.015443003736436367,-0.00011912590707652271,0.9868934154510498,0.16060572862625122,0.0024999999441206455,0.0,0.0,0.0,0.0024999999441206455,0.0,0.0,0.0,0.0024999999441206455,0.0,0.0,0.0,0.019999999552965164,0.0,0.0,0.0,0.019999999552965164,0.0,0.0,0.0,0.019999999552965164,0.2992752194404602,0.020350713282823563,9.633668899536133,0.03999999910593033,0.0,0.0,0.0,0.03999999910593033,0.0,0.0,0.0,0.03999999910593033
1779481147.903759,48904,1779481147,879968915,imu_link,0.015274405479431152,-0.0012758550001308322,0.9868981838226318,0.16058839857578278,0.0024999999441206455,0.0,0.0,0.0,0.0024999999441206455,0.0,0.0,0.0,0.0024999999441206455,0.0,0.0,0.0,0.019999999552965164,0.0,0.0,0.0,0.019999999552965164,0.0,0.0,0.0,0.019999999552965164,0.2932896912097931,0.02693476900458336,9.595361709594727,0.03999999910593033,0.0,0.0,0.0,0.03999999910593033,0.0,0.0,0.0,0.03999999910593033
1779481147.925028,48905,1779481147,919968915,imu_link,0.011943950317800045,-0.0023989060427993536,0.9869442582130432,0.16057421267032623,0.0024999999441206455,0.0,0.0,0.0,0.0024999999441206455,0.0,0.0,0.0,0.0024999999441206455,0.0,0.0,0.0,0.019999999552965164,0.0,0.0,0.0,0.019999999552965164,0.0,0.0,0.0,0.019999999552965164,0.2717418968677521,0.010773907415568829,9.647435188293457,0.03999999910593033,0.0,0.0,0.0,0.03999999910593033,0.0,0.0,0.0,0.03999999910593033
1779481147.930672,48906,1779481147,921968915,imu_link,0.012599901296198368,-0.0025932379066944122,0.9869360327720642,0.1605721265077591,0.0024999999441206455,0.0,0.0,0.0,0.0024999999441206455,0.0,0.0,0.0,0.0024999999441206455,0.0,0.0,0.0,0.019999999552965164,0.0,0.0,0.0,0.019999999552965164,0.0,0.0,0.0,0.019999999552965164,0.29867666959762573,-0.016759412363171577,9.664793968200684,0.03999999910593033,0.0,0.0,0.0,0.03999999910593033,0.0,0.0,0.0,0.03999999910593033
1779481147.9361012,48907,1779481147,926968915,imu_link,0.012599901296198368,-0.0025932379066944122,0.9869360327720642,0.1605721265077591,0.0024999999441206455,0.0,0.0,0.0,0.0024999999441206455,0.0,0.0,0.0,0.0024999999441206455,0.0,0.0,0.0,0.019999999552965164,0.0,0.0,0.0,0.019999999552965164,0.0,0.0,0.0,0.019999999552965164,0.29867666959762573,-0.016759412363171577,9.664793968200684,0.03999999910593033,0.0,0.0,0.0,0.03999999910593033,0.0,0.0,0.0,0.03999999910593033
1779481147.9413924,48908,1779481147,931968915,imu_link,0.013101598247885704,-0.0020417263731360435,0.9869294762611389,0.16057941317558289,0.0024999999441206455,0.0,0.0,0.0,0.0024999999441206455,0.0,0.0,0.0,0.0024999999441206455,0.0,0.0,0.0,0.019999999552965164,0.0,0.0,0.0,0.019999999552965164,0.0,0.0,0.0,0.019999999552965164,0.2621650695800781,0.012569558806717396,9.616909980773926,0.03999999910593033,0.0,0.0,0.0,0.03999999910593033,0.0,0.0,0.0,0.03999999910593033
1779481147.947406,48909,1779481147,936968915,imu_link,0.013604258187115192,-0.0014976379461586475,0.9869225025177002,0.16058653593063354,0.0024999999441206455,0.0,0.0,0.0,0.0024999999441206455,0.0,0.0,0.0,0.0024999999441206455,0.0,0.0,0.0,0.019999999552965164,0.0,0.0,0.0,0.019999999552965164,0.0,0.0,0.0,0.019999999552965164,0.27413609623908997,0.028730420395731926,9.660603523254395,0.03999999910593033,0.0,0.0,0.0,0.03999999910593033,0.0,0.0,0.0,0.03999999910593033
1779481147.952758,48910,1779481147,941968915,imu_link,0.013604258187115192,-0.0014976379461586475,0.9869225025177002,0.16058653593063354,0.0024999999441206455,0.0,0.0,0.0,0.0024999999441206455,0.0,0.0,0.0,0.0024999999441206455,0.0,0.0,0.0,0.019999999552965164,0.0,0.0,0.0,0.019999999552965164,0.0,0.0,0.0,0.019999999552965164,0.27413609623908997,0.028730420395731926,9.660603523254395,0.03999999910593033,0.0,0.0,0.0,0.03999999910593033,0.0,0.0,0.0,0.03999999910593033
1779481147.9598067,48911,1779481147,946968915,imu_link,0.01400492712855339,-0.0008695975411683321,0.9869162440299988,0.16059477627277374,0.0024999999441206455,0.0,0.0,0.0,0.0024999999441206455,0.0,0.0,0.0,0.0024999999441206455,0.0,0.0,0.0,0.019999999552965164,0.0,0.0,0.0,0.019999999552965164,0.0,0.0,0.0,0.019999999552965164,0.27054479718208313,0.030526071786880493,9.627683639526367,0.03999999910593033,0.0,0.0,0.0,0.03999999910593033,0.0,0.0,0.0,0.03999999910593033
1779481147.9810343,48912,1779481147,955968915,imu_link,0.01512390561401844,-0.0012037368724122643,0.9869005084037781,0.16058845818042755,0.0024999999441206455,0.0,0.0,0.0,0.0024999999441206455,0.0,0.0,0.0,0.0024999999441206455,0.0,0.0,0.0,0.019999999552965164,0.0,0.0,0.0,0.019999999552965164,0.0,0.0,0.0,0.019999999552965164,0.29628247022628784,0.023343466222286224,9.642048835754395,0.03999999910593033,0.0,0.0,0.0,0.03999999910593033,0.0,0.0,0.0,0.03999999910593033
1779481147.9866984,48913,1779481147,960968915,imu_link,0.01512390561401844,-0.0012037368724122643,0.9869005084037781,0.16058845818042755,0.0024999999441206455,0.0,0.0,0.0,0.0024999999441206455,0.0,0.0,0.0,0.0024999999441206455,0.0,0.0,0.0,0.019999999552965164,0.0,0.0,0.0,0.019999999552965164,0.0,0.0,0.0,0.019999999552965164,0.29628247022628784,0.023343466222286224,9.642048835754395,0.03999999910593033,0.0,0.0,0.0,0.03999999910593033,0.0,0.0,0.0,0.03999999910593033
1779481148.0081646,48914,1779481148,2968915,imu_link,0.01091429777443409,-0.0009984856005758047,0.9869551658630371,0.1605953574180603,0.0024999999441206455,0.0,0.0,0.0,0.0024999999441206455,0.0,0.0,0.0,0.0024999999441206455,0.0,0.0,0.0,0.019999999552965164,0.0,0.0,0.0,0.019999999552965164,0.0,0.0,0.0,0.019999999552965164,0.28131869435310364,0.02274491637945175,9.663596153259277,0.03999999910593033,0.0,0.0,0.0,0.03999999910593033,0.0,0.0,0.0,0.03999999910593033
1779481148.013766,48915,1779481148,4968915,imu_link,0.011588627472519875,-0.0011135888053104281,0.9869475960731506,0.16059353947639465,0.0024999999441206455,0.0,0.0,0.0,0.0024999999441206455,0.0,0.0,0.0,0.0024999999441206455,0.0,0.0,0.0,0.019999999552965164,0.0,0.0,0.0,0.019999999552965164,0.0,0.0,0.0,0.019999999552965164,0.2795230448246002,0.014365210197865963,9.698312759399414,0.03999999910593033,0.0,0.0,0.0,0.03999999910593033,0.0,0.0,0.0,0.03999999910593033
